CORE-ID,CDISC Rule ID,Organization,Standard Name,Standard Version,Status,Sensitivity,Rule Type,Executability,Scope,Error Message,Output Variables,Description,Check,Operations
,,,,,,,,,,,,,,
,,,,,Draft,,,,,,,,,
,CG0033,CDISC,SDTMIG,"3.4,3.2,3.3",Draft,Record,Record Data,Fully Executable,"{'Classes': {'Include': ['ALL']}, 'Domains': {'Include': ['ALL']}}",Planned Visit Value cannot be found Trial Visit (TV) domain,,Verify that visitnum is planned and exists in TV,"{'all': [{'name': 'VISITNUM', 'operator': 'non_empty'}, {'domain': 'is_not_contained_by', 'name': 'VISTNUM', 'operator': 'get_dataset', 'value': {'Target': 'VISITNUM', 'comparator': '$tv_visitnum'}}, {'domain': 'not_equal_to', 'operator': 'get_dataset', 'value': {'Target': 'SVUPRES', 'comparator': '$tv_svupres'}}]}","{'domain': 'TV', 'id': '$tv_visitnum', 'name': 'VISITNUM', 'operator': 'distinct'},{'domain': 'SV', 'id': ""$sv_svpressp = 'Y'"", 'name': 'VISITNUM', 'operator': 'distinct'}"
,3,CDISC,"SENDIG,SENDIG-DART","3.1,3.1.1,3.0,1.1",Draft,Dataset,Variable Metadata Check,Fully Executable,"{'Classes': {'Include': ['ALL']}, 'Domains': {'Include': ['ALL']}}",Variable label length should be less than or equal to 40 characters,,Raise an error if variable label length > 40 characters,"{'all': [{'name': 'variable_label', 'operator': 'longer_than', 'value': 40}]}",
,19,CDISC,"SENDIG,SENDIG-DART","3.0,3.1,3.1.1,1.1",Draft,Record,Record Data,Fully Executable,"{'Classes': {'Include': ['FINDINGS']}, 'Domains': {'Include': ['ALL']}}","--TESTCD value cannot contain characters other than letters, numbers or underscores",--TESTCD,"Raise an error when --TESTCD contains anything else than a letter, number or underscore","{'any': [{'name': '--TESTCD', 'operator': 'not_matches_regex', 'value': '^[A-Z0-9_]*$'}]}",
,5,CDISC,ADaMIG,"1.3,1.2,1.1,1.0",Draft,Record,Record Data,Fully Executable,"{'Classes': {'Include': ['ALL']}, 'Subclasses': {'Include': ['ALL']}, 'Data_Structures': {'Include': ['ADAM OTHER', 'BASIC DATA STRUCTURE', 'OCCURRENCE DATA STRUCTURE', 'SUBJECT LEVEL ANALYSIS DATASET']}}","Variable with a suffix of FL does not has a value  Y, N or null",,"A variable with a suffix of FL must have a value Y, N or null","{'all': [{'operator': 'is_not_contained_by', 'value': ['Y', 'N', '']}]}",
,17,CDISC,ADaMIG,"1.3,1.2,1.1,1.0",Draft,Record,Record Data,Fully Executable,"{'Datasets': {'Include': ['ALL']}, 'Domains': {'Include': ['ALL'], 'include_split_datasets': True}, 'Subclasses': {'Include': ['ALL']}, 'Data_Structures': {'Include': ['ALL']}}",Variable value is greather than 200 characters long,,Variable Value must not be greather than 200 characters long,"{'all': [{'name': 'variable_data_type', 'operator': 'equal_to', 'value': 'Char'}, {'operator': 'longer_than', 'value': 200}]}",
,70,CDISC,ADaMIG,"1.3,1.2,1.1,1.0",Draft,Record,Record Data,Fully Executable,{'Data_Structures': {'Include': ['SUBJECT LEVEL ANALYSIS DATASET']}},"Variable with a suffix of FN does must have the value  Y, N or null",variable_name,"'A variable with a suffix of FN must have a value that is not 0, 1 or null'","{'all': [{'name': 'variable_name', 'operator': 'starts_with', 'value': 'TR'}, {'name': 'variable_name', 'operator': 'contains', 'value': 'AG'}, {'name': 'variable_name', 'operator': 'ends_with', 'value': 'N'}, {'name': 'Root_variable_name', 'operator': 'not_exists'}]}",
,71,CDISC,ADaMIG,"1.3,1.2,1.1,1.0",Draft,Record,Record Data,Fully Executable,{'Data_Structures': {'Include': ['SUBJECT LEVEL ANALYSIS DATASET']}},ARM variable is not present in ADSL,"ARM,ACTARM","'ARM as A CORE Variable,  Is Required in ADSL'","{'all': [{'name': 'ARM', 'operator': 'not_exists'}]}",
,16,CDISC,ADaMIG,"1.3,1.2,1.1,1.0",Draft,Record,Variable Metadata Check,Fully Executable,"{'Datasets': {'Include': ['ALL']}, 'Domains': {'Include': ['ALL'], 'include_split_datasets': True}, 'Subclasses': {'Include': ['ALL']}, 'Data_Structures': {'Include': ['ALL']}}",Label must be less than 40 charatcters,"variable_label,variable_name",,"{'all': [{'name': 'variable_label', 'operator': 'longer_than', 'value': 40}]}",
,13,CDISC,ADaMIG,"1.3,1.2,1.1,1.0",Draft,Record,Variable Metadata Check,Fully Executable,"{'Datasets': {'Include': ['ALL']}, 'Domains': {'Include': ['ALL'], 'include_split_datasets': True}, 'Subclasses': {'Include': ['ALL']}, 'Data_Structures': {'Include': ['ALL']}}",Variable name must be less than 8 charatcters,"variable_name,variable_label",,"{'all': [{'name': 'variable_name', 'operator': 'longer_than', 'value': 8}]}",
,54,CDISC,ADaMIG,"1.3,1.2,1.1,1.0",,Record,Record Data,Fully Executable,{'Data_Structures': {'Include': ['SUBJECT LEVEL ANALYSIS DATASET']}},"Duplicate USUBJIDs "":"" Only one USUBJID record permitted","USUBJID,STUDYID",,"{'all': [{'comparator': '', 'context': '', 'name': 'USUBJID', 'operator': 'has_same_values'}]}",
CDISC.ADAMIG.AD0001,1,CDISC,ADaMIG,1.3,Draft,Dataset,Domain Presence Check,Fully Executable,"{'Domains': {'Include': ['ALL']}, 'Data_Structures': {'Include': ['ALL']}}",ADSL dataset does not exist,,The ADSL dataset must exist,"{'all': [{'name': 'ADSL', 'operator': 'not_exists'}]}",
CDISC.ADAMIG.AD0006,6,CDISC,ADaMIG,"1.3,1.2,1.1,1.0",Draft,Record,Record Data,Fully Executable,"{'Subclasses': {'Include': ['ALL']}, 'Data_Structures': {'Include': ['ADAM OTHER', 'BASIC DATA STRUCTURE', 'OCCURRENCE DATA STRUCTURE', 'SUBJECT LEVEL ANALYSIS DATASET']}}","Variable with a suffix of FN does must have the value  Y, N or null","--FL,--FN","'A variable with a suffix of FN must have a value that is not 0, 1 or null'","{'all': [{'name': ""variable_name ending in 'FL'"", 'operator': 'exists'}, {'name': '(ROOT|FN)', 'operator': 'exists'}, {'name': '(ROOT|FN)', 'operator': 'not_contains_all', 'value': '(0,1)'}, {'name': '(ROOT|FN)', 'operator': 'non_empty'}]}",
CDISC.ADAMIG.AD0019,19,CDISC,ADaMIG,"1.3,1.2,1.1,1.0",Draft,Record,Record Data,Fully Executable,{'Data_Structures': {'Include': ['SUBJECT LEVEL ANALYSIS DATASET']}},"The values of COMPLFL are not following the ""Y, N"" codelist",COMPLFL,Raise an error when COMPLFL is present and has a value that is not Y or N,"{'all': [{'name': 'COMPLFL', 'operator': 'exists'}, {'name': 'COMPLFL', 'operator': 'is_not_contained_by', 'value': ['Y', 'N']}]}",
CDISC.ADAMIG.AD0020,20,CDISC,ADaMIG,"1.3,1.2,1.1,1.0",Draft,Record,Record Data,Fully Executable,{'Data_Structures': {'Include': ['SUBJECT LEVEL ANALYSIS DATASET']}},"The values of FASFL are not following the ""Y, N"" codelist",FASFL,Raise an error when FASFL is present and has a value that is not Y or N,"{'all': [{'name': 'FASFL', 'operator': 'exists'}, {'name': 'FASFL', 'operator': 'is_not_contained_by', 'value': ['Y', 'N']}]}",
CDISC.ADAMIG.AD0021,21,CDISC,ADaMIG,"1.3,1.2,1.1,1.0",Draft,Record,Record Data,Fully Executable,{'Data_Structures': {'Include': ['SUBJECT LEVEL ANALYSIS DATASET']}},"The values of ITTFL are not following the ""Y, N"" codelist",ITTFL,Raise an error when ITTFL is present and has a value that is not Y or N,"{'all': [{'name': 'ITTFL', 'operator': 'exists'}, {'name': 'ITTFL', 'operator': 'is_not_contained_by', 'value': ['Y', 'N']}]}",
CDISC.ADAMIG.AD0022,22,CDISC,ADaMIG,"1.3,1.2,1.1,1.0",Draft,Record,Record Data,Fully Executable,{'Data_Structures': {'Include': ['SUBJECT LEVEL ANALYSIS DATASET']}},"The values of PPROTFL are not following the ""Y, N"" codelist",PPROTFL,Raise an error when PPROTFL is present and has a value that is not Y or N,"{'all': [{'name': 'PPROTFL', 'operator': 'exists'}, {'name': 'PPROTFL', 'operator': 'is_not_contained_by', 'value': ['Y', 'N']}]}",
CDISC.ADAMIG.AD0023,23,CDISC,ADaMIG,"1.3,1.2,1.1,1.0",Draft,Record,Record Data,Fully Executable,{'Data_Structures': {'Include': ['SUBJECT LEVEL ANALYSIS DATASET']}},"The values of SAFFL are not following the ""Y, N"" codelist",SAFFL,Raise an error when SAFFL is present and has a value that is not Y or N,"{'all': [{'name': 'SAFFL', 'operator': 'exists'}, {'name': 'SAFFL', 'operator': 'is_not_contained_by', 'value': ['Y', 'N']}]}",
CDISC.ADAMIG.AD0024,24,CDISC,ADaMIG,"1.3,1.2,1.1,1.0",Draft,Record,Record Data,Fully Executable,{'Data_Structures': {'Include': ['SUBJECT LEVEL ANALYSIS DATASET']}},"The values of RANDFL are not following the ""Y, N"" codelist",RANDFL,Raise an error when RANDFL is present and has a value that is not Y or N,"{'all': [{'name': 'RANDFL', 'operator': 'exists'}, {'name': 'RANDFL', 'operator': 'is_not_contained_by', 'value': ['Y', 'N']}]}",
CDISC.ADAMIG.AD0025,25,CDISC,ADaMIG,"1.3,1.2,1.1,1.0",Draft,Record,Record Data,Fully Executable,{'Data_Structures': {'Include': ['SUBJECT LEVEL ANALYSIS DATASET']}},"The values of ENRLFL are not following the ""Y, N"" codelist",ENRLFL,Raise an error when ENRLFL is present and has a value that is not Y or N,"{'all': [{'name': 'ENRLFL', 'operator': 'exists'}, {'name': 'ENRLFL', 'operator': 'is_not_contained_by', 'value': ['Y', 'N']}]}",
CDISC.ADAMIG.AD0026,26,CDISC,ADaMIG,"1.3,1.2,1.1,1.0",Draft,Record,Record Data,Fully Executable,{'Data_Structures': {'Include': ['SUBJECT LEVEL ANALYSIS DATASET']}},Some values of COMPLFN are not equal to 1 or 0,COMPLFN,Raise an error when COMPLFN is present and has a value that is not 1 or 0,"{'all': [{'name': 'COMPLFN', 'operator': 'exists'}, {'name': 'COMPLFN', 'operator': 'is_not_contained_by', 'value': [1, 0]}]}",
CDISC.ADAMIG.AD0027,27,CDISC,ADaMIG,"1.3,1.2,1.1,1.0",Draft,Record,Record Data,Fully Executable,{'Data_Structures': {'Include': ['SUBJECT LEVEL ANALYSIS DATASET']}},Some values of FASFN are not equal to 1 or 0,FASFN,Raise an error when FASFN is present and has a value that is not 1 or 0,"{'all': [{'name': 'FASFN', 'operator': 'exists'}, {'name': 'FASFN', 'operator': 'is_not_contained_by', 'value': [1, 0]}]}",
CDISC.ADAMIG.AD0028,28,CDISC,ADaMIG,"1.3,1.2,1.1,1.0",Draft,Record,Record Data,Fully Executable,{'Data_Structures': {'Include': ['SUBJECT LEVEL ANALYSIS DATASET']}},Some values of ITTFN are not equal to 1 or 0,ITTFN,Raise an error when ITTFN is present and has a value that is not 1 or 0,"{'all': [{'name': 'ITTFN', 'operator': 'exists'}, {'name': 'ITTFN', 'operator': 'is_not_contained_by', 'value': [1, 0]}]}",
CDISC.ADAMIG.AD0029,29,CDISC,ADaMIG,"1.3,1.2,1.1,1.0",Draft,Record,Record Data,Fully Executable,{'Data_Structures': {'Include': ['SUBJECT LEVEL ANALYSIS DATASET']}},Some values of PPROTFN are not equal to 1 or 0,PPROTFN,Raise an error when PPROTFN is present and has a value that is not 1 or 0,"{'all': [{'name': 'PPROTFN', 'operator': 'exists'}, {'name': 'PPROTFN', 'operator': 'is_not_contained_by', 'value': [1, 0]}]}",
CDISC.ADAMIG.AD0030,30,CDISC,ADaMIG,"1.3,1.2,1.1,1.0",Draft,Record,Record Data,Fully Executable,{'Data_Structures': {'Include': ['SUBJECT LEVEL ANALYSIS DATASET']}},Some values of SAFFN are not equal to 1 or 0,SAFFN,Raise an error when SAFFN is present and has a value that is not 1 or 0,"{'all': [{'name': 'SAFFN', 'operator': 'exists'}, {'name': 'SAFFN', 'operator': 'is_not_contained_by', 'value': [1, 0]}]}",
CDISC.ADAMIG.AD0031,31,CDISC,ADaMIG,"1.3,1.2,1.1,1.0",Draft,Record,Record Data,Fully Executable,{'Data_Structures': {'Include': ['SUBJECT LEVEL ANALYSIS DATASET']}},Some values of RANDFN are not equal to 1 or 0,RANDFN,Raise an error when RANDFN is present and has a value that is not 1 or 0,"{'all': [{'name': 'RANDFN', 'operator': 'exists'}, {'name': 'RANDFN', 'operator': 'is_not_contained_by', 'value': [1, 0]}]}",
CDISC.ADAMIG.AD0032,32,CDISC,ADaMIG,"1.3,1.2,1.1,1.0",Draft,Record,Record Data,Fully Executable,{'Data_Structures': {'Include': ['SUBJECT LEVEL ANALYSIS DATASET']}},Some values of ENRLFN are not equal to 1 or 0,ENRLFN,Raise an error when ENRLFN is present and has a value that is not 1 or 0,"{'all': [{'name': 'ENRLFN', 'operator': 'exists'}, {'name': 'ENRLFN', 'operator': 'is_not_contained_by', 'value': [1, 0]}]}",
CDISC.ADAMIG.AD0039,AD0039,CDISC,ADAMIG,1.3,Draft,Variable,Record Data,,"{'Classes': {'Include': ['ALL']}, 'Domains': {'Include': ['ADLB']}}",The values of ADTF are not following the DATEFL codelist,ADTF,Raise an error when a variable ends with DTF and values are not according to the DATEFL controlled terminology codelist,"{'all': [{'name': 'ADTF', 'operator': 'does_not_use_valid_codelist_terms', 'value': 'DATEFL'}]}",
CDISC.ADAMIG.AD0041,AD0041,CDISC,ADAMIG,1.3,Draft,Record,Record Data,,"{'Classes': {'Include': ['ALL']}, 'Domains': {'Include': ['ADLB']}}",Value of --DT  do not have a date format,,Raise an error when a variable ends with DT and does not have a date format,"{'all': [{'name': 'variable_type', 'operator': 'is_numeric'}, {'name': 'variable_name', 'operator': 'ends_with', 'value': 'DT'}, {'name': 'variable_name', 'operator': 'does_not_use_valid_format_terms'}]}",
CDISC.ADAMIG.AD0047,47,CDISC,ADaMIG,1.3,Draft,Dataset,Record Data,Fully Executable,"{'Datasets': {'Include': ['ADSL']}, 'Data_Structures': {'Include': ['SUBJECT LEVEL ANALYSIS DATASET']}}",SITEID is not present within ADSL,SITEID,Variable SITEID should be present in dataset ADSL,"{'all': [{'name': 'SITEID', 'operator': 'not_exists'}]}",
CDISC.ADAMIG.AD0053,53,CDISC,ADaMIG,1.3,Draft,Record,Record Data,Fully Executable,"{'Classes': {'Include': ['ALL']}, 'Domains': {'Include': ['ADSL', 'DM']}, 'Data_Structures': {'Include': ['ADAM OTHER', 'ALL']}}",The values of USUBJID are not present in SDTM.DM,USUBJID,Raise an error when the values of USUBJID are not present in SDTM.DM,"{'all': [{'name': 'USUBJID', 'operator': 'is_not_contained_by', 'value': '$dm_usubjid'}]}","{'operator': 'distinct', 'domain': 'DM', 'name': 'USUBJID', 'id': '$dm_usubjid'}"
CDISC.ADAMIG.AD0061,AD0061,CDISC,ADAMIG,1.3,Draft,Dataset,Domain Presence Check,,"{'Classes': {'Include': ['ADSL']}, 'Domains': {'Include': ['ADSL', 'EX']}}",SDTM.EX is present and neither TRTSDT or TRTSDTM are present,,"Raise an error when TRTSDT and/or TRTSDTM are not present, though data exist in SDTM.EX","{'all': [{'name': '$TRTSDT_EXISTS', 'operator': 'equal_to', 'value': False}, {'name': '$TRTSDTM_EXISTS', 'operator': 'equal_to', 'value': False}, {'name': 'EX', 'operator': 'exists'}]}","{'id': '$TRTSDT_EXISTS', 'domain': 'ADSL', 'name': 'TRTSDT', 'operator': 'variable_exists'},{'id': '$TRTSDTM_EXISTS', 'domain': 'ADSL', 'name': 'TRTSDTM', 'operator': 'variable_exists'}"
CDISC.ADAMIG.AD0088,88,CDISC,ADaMIG,"1.3,1.2,1.1,1.0",Draft,Dataset,Dataset Contents Check against Define XML and Library Metadata,Fully Executable,{'Data_Structures': {'Include': ['ALL']}},STUDYID is not present,,Raise an error when STUDYID is not present,"{'all': [{'name': 'STUDYID', 'operator': 'not_exists'}]}",
CDISC.ADAMIG.AD0089,89,CDISC,ADaMIG,"1.3,1.2,1.1,1.0",Draft,Dataset,Dataset Contents Check against Define XML and Library Metadata,Fully Executable,{'Data_Structures': {'Include': ['ALL']}},USUBJID is not present,,Raise an error when USUBJID is not present,"{'all': [{'name': 'USUBJID', 'operator': 'not_exists'}]}",
CDISC.SDTMIG.CG0001,CG0001,CDISC,SDTMIG,"3.4,3.2,3.3",Draft,Record,Record Data,Fully Executable,"{'Classes': {'Include': ['ALL']}, 'Domains': {'Include': ['ALL']}}","DOMAIN Code is not a published DOMAIN Code in CDISC Controlled Terminology, confirm if domain is a custom domain",,DOMAIN name should use a SDTM-specified standard domain name and prefixes where applicable,"{'all': [{'name': 'DOMAIN', 'operator': 'uses_valid_codelist_terms', 'value': 'DOMAIN'}]}",
CDISC.SDTMIG.CG0002,CG0002,CDISC,SDTMIG,"3.4,3.2,3.3",Draft,Dataset,Record Data,Fully Executable,"{'Classes': {'Include': ['ALL']}, 'Domains': {'Include': ['ALL']}}","--DUR exists in a dataset, confirm collected and not derived.",,"Raise a message when --DUR exists in a dataset, confirm collected and not derived.","{'all': [{'name': '--DUR', 'operator': 'exists'}]}",
CDISC.SDTMIG.CG0006,CG0006,CDISC,SDTMIG,"3.4,3.2,3.3",Draft,Record,Record Data,Fully Executable,"{'Classes': {'Include': ['ALL']}, 'Domains': {'Include': ['ALL']}}","--DY is not calculated correctly even though the date portion of --DTC is complete, the date portion of DM.RFSTDTC is a complete date, and --DY is not empty.","--DY,--DTC,RFSTDTC",Raise an error when --DY is not calculated as per the study day algorithm as a non-zero integer value when the date portion of --DTC is complete and the date portion of DM.RFSTDTC is a complete date AND --DY is not empty,"{'all': [{'name': '--DY', 'operator': 'non_empty'}, {'name': '--DTC', 'operator': 'is_complete_date'}, {'name': 'RFSTDTC', 'operator': 'is_complete_date'}, {'name': '--DY', 'operator': 'not_equal_to', 'value': '$val_dy'}]}","{'name': 'RFSTDTC', 'domain': 'DM', 'operator': 'dy', 'id': '$val_dy'}"
CDISC.SDTMIG.CG0006,CG0006,CDISC,SDTMIG,"3.4,3.2,3.3",Draft,Record,Record Data,Fully Executable,"{'Classes': {'Include': ['ALL']}, 'Domains': {'Include': ['ALL']}}","--DY is not calculated correctly even though the date portion of --DTC is complete, the date portion of DM.RFSTDTC is a complete date, and --DY is not empty.","--DY,--DTC,RFSTDTC",Raise an error when --DY is not calculated as per the study day algorithm as a non-zero integer value when the date portion of --DTC is complete and the date portion of DM.RFSTDTC is a complete date AND --DY is not empty,"{'all': [{'name': '--DY', 'operator': 'exists'}, {'name': '--DY', 'operator': 'non_empty'}, {'name': '--DTC', 'operator': 'exists'}, {'name': '--DTC', 'operator': 'is_complete_date'}, {'name': 'RFSTDTC', 'operator': 'is_complete_date'}, {'name': '--DY', 'operator': 'not_equal_to', 'value': '$val_dy'}]}","{'name': '--DTC', 'domain': 'LB', 'operator': 'dy', 'id': '$val_dy'}"
CDISC.SDTMIG.CG0007,CG0007,CDISC,SDTMIG,"3.4,3.3,3.2",Draft,Record,Record Data,Fully Executable,"{'Classes': {'Include': ['ALL']}, 'Domains': {'Exclude': ['DM']}}","The date portion of --DTC is not complete date or the date portion of DM.RFSTDTC is not complete date, but --DY is not empty","--DY,--DTC,RFSTDTC","Raise an error when the date portion of --DTC is an incomplete date or the date portion of DM.RFSTDTC is an incomplete date, but --DY is not empty","{'all': [{'name': '--DY', 'operator': 'non_empty'}, {'any': [{'name': '--DTC', 'operator': 'is_incomplete_date'}, {'name': 'RFSTDTC', 'operator': 'is_incomplete_date'}]}]}",
CDISC.SDTMIG.CG0009,CG0009,CDISC,SDTMIG,"3.4,3.3,3.2",Draft,Record,Record Data,Fully Executable,"{'Classes': {'Include': ['ALL']}, 'Domains': {'Include': ['ALL']}}",EPOCH is not in TA.EPOCH,EPOCH,Raise an error when EPOCH is not in TA.EPOCH,"{'all': [{'name': 'EPOCH', 'operator': 'is_not_contained_by', 'value': '$ta_epoch'}, {'name': 'EPOCH', 'operator': 'non_empty'}]}","{'domain': 'TA', 'id': '$ta_epoch', 'name': 'EPOCH', 'operator': 'distinct'}"
CDISC.SDTMIG.CG0010,CG0010,CDISC,SDTMIG,"3.4,3.2,3.3",Draft,Dataset,Variable Metadata Check,Fully Executable,"{'Classes': {'Include': ['ALL']}, 'Domains': {'Include': ['ALL']}}","Metadata attribute of variable role does not equal the IG role for domain in IG, or model role (for custom domains)",,"Trigger warning when metadata attribute of variable role does not equal the IG role for domain in IG, or model role (for custom domains)","{'all': [{'name': None, 'operator': 'not_equal_to', 'value': None}, {'name': None, 'operator': 'not_equal_to', 'value': 'Model Role for custom domains'}]}",
CDISC.SDTMIG.CG0011,CG0011,CDISC,SDTMIG,"3.4,3.2,3.3",Draft,Dataset,Record Data,Fully Executable,"{'Classes': {'Include': ['ALL']}, 'Domains': {'Include': ['ALL']}}",Variable format does not match SDTM-specified controlled terminology or format guidelines for variables (when provided),,Trigger error when variable format does not match SDTM-specified controlled terminology or format guidelines for variables (when provided),"{'all': [{'name': None, 'operator': 'not_equal_to', 'value': None}]}",
CDISC.SDTMIG.CG0012,CG0012,CDISC,SDTMIG,"3.4,3.2,3.3",Draft,Dataset,Variable Metadata Check against Define XML,Fully Executable,"{'Classes': {'Include': ['ALL']}, 'Domains': {'Include': ['ALL']}}",Variable type does not match IG Type or Model Type,,Trigger error when variable type does not match IG Type (for domains in IG) or Model Type (custom domains),"{'all': [{'name': None, 'operator': None}, {'name': None, 'operator': None}]}",
CDISC.SDTMIG.CG0013,CG0013,CDISC,SDTMIG,"3.4,3.2,3.3",Draft,Record,Variable Metadata Check against Define XML,Fully Executable,"{'Classes': {'Include': ['ALL']}, 'Domains': {'Include': ['ALL']}}",Variable is not an allowed variable for an Observation Class,,Trigger error when variable is not an allowed variable for an Observation Class,"{'all': [{'name': 'variable_name', 'operator': 'not_equal_to', 'value': 'define_variable_name'}]}",
CDISC.SDTMIG.CG0014,CG0014,CDISC,SDTMIG,"3.2,3.3,3.4",Draft,Record,Record Data,Fully Executable,"{'Classes': {'Include': ['ALL']}, 'Domains': {'Include': ['ALL']}}",,,,{'all': []},
CDISC.SDTMIG.CG0015,CG0015,CDISC,SDTMIG,"3.2,3.3,3.4",Draft,Record,Record Data,Fully Executable,"{'Classes': {'Include': ['ALL']}, 'Domains': {'Include': ['ALL']}}",,,,{'all': []},
CDISC.SDTMIG.CG0016,CG0016,CDISC,SDTMIG,"3.4,3.2,3.3",Draft,Dataset,Record Data,Fully Executable,"{'Classes': {'Include': ['ALL']}, 'Domains': {'Include': ['ALL']}}",SDTM Expected variable not found in the dataset.,,Raise an error when Variable Core Status = Expected and Variable does not exist.,"{'all': [{'name': 'CORE', 'operator': 'equal_to', 'value': 'Exp'}, {'name': 'GEN', 'operator': 'not_exists'}]}",
CDISC.SDTMIG.CG0017,CG0017,CDISC,SDTMIG,"3.4,3.2,3.3",Draft,Dataset,Variable Metadata Check,Fully Executable,"{'Classes': {'Include': ['ALL']}, 'Domains': {'include_split_datasets': True, 'Exclude': ['SUPP--', 'AP--']}}",Split dataset name is not 3 or 4 characters in length,,Split datasets (excluding supplemental qualifiers) is expected to have a have a length of 3 or 4 characters,"{'any': [{'name': 'dataset_name', 'operator': 'shorter_than', 'value': 3}, {'name': 'dataset_name', 'operator': 'longer_than', 'value': 4}]}",
CDISC.SDTMIG.CG0018,CG0018,CDISC,SDTMIG,"3.4,3.2,3.3",Draft,Dataset,Dataset Metadata Check,Fully Executable,"{'Classes': {'Include': ['ALL']}, 'Domains': {'include_split_datasets': True, 'Include': ['SUPP--']}}",Supplemental qualifier dataset associated with a split dataset is greater than 8 characters in length,,"When a supplemental qualifier dataset is associated with a split dataset, the dataset name length must not be greater than 8 characters.","{'all': [{'name': 'dataset_name', 'operator': 'longer_than', 'value': 8}]}",
CDISC.SDTMIG.CG0019,CG0019,CDISC,SDTMIG,"3.4,3.2,3.3",Draft,Dataset,Record Data,Fully Executable,"{'Classes': {'Include': ['ALL']}, 'Domains': {'Include': ['ALL']}}",Records are not unique as per sponsor defined key variables as documented in the define.xml,,Trigger error if records are not unique as per sponsor defined key variables as documented in the define.xml,"{'all': [{'name': '--SEQ', 'operator': 'is_not_unique_set', 'value': ['DOMAIN', 'USUBJID', '--TESTCD']}]}",
CDISC.SDTMIG.CG0020,CG0020,CDISC,SDTMIG,"3.4,3.2,3.3",Draft,Record,Record Data,Fully Executable,"{'Classes': {'Include': ['ALL']}, 'Domains': {'Include': ['ALL']}}","Variable is not equal to value within the extensible codelist, nor equal to MULTIPLE",,"Trigger error if the value of a variable, which is associated with an extensible codelist, is in the associated codelist or equal to 'MULTIPLE'","{'all': [{'name': None, 'operator': None}, {'name': None, 'operator': 'is_not_contained_by', 'value': ['codelist']}, {'name': None, 'operator': 'not_equal_to', 'value': 'MULTIPLE'}]}",
CDISC.SDTMIG.CG0021,CG0021,CDISC,SDTMIG,"3.4,3.2,3.3",Draft,Record,Record Data,Fully Executable,"{'Classes': {'Include': ['ALL']}, 'Domains': {'Include': ['ALL']}}","Variable is not equal to value within the extensible codelist, nor equal to OTHER",,"Trigger error if the value of a variable, which is associated with an extensible codelist, is in the associated codelist or equal to 'OTHER'","{'all': [{'name': None, 'operator': None}, {'name': None, 'operator': 'is_not_contained_by', 'value': ['codelist']}, {'name': None, 'operator': 'not_equal_to', 'value': 'OTHER'}]}",
CDISC.SDTMIG.CG0022,CG0022,CDISC,SDTMIG,"3.4,3.3,3.2",Draft,Dataset,Record Data,Fully Executable,"{'Classes': {'Include': ['ALL']}, 'Domains': {'Include': ['ALL']}}",--LNKGRP variable is not found in any of the other domains.,--LNKGRP,Verify that when --LNKGRP is present in one domain it is also present in another domain.,"{'all': [{'name': '--LNKGRP', 'operator': 'value_does_not_have_multiple_references', 'value': '$VALUE_COUNTS'}, {'name': '--LNKGRP', 'operator': 'non_empty'}]}","{'id': '$VALUE_COUNTS', 'name': '--LNKGRP', 'operator': 'variable_value_count'}"
CDISC.SDTMIG.CG0024,CG0024,CDISC,SDTMIG,"3.4,3.2,3.3",Draft,Domain,Record Data,Fully Executable,"{'Classes': {'Include': ['ALL']}, 'Domains': {'Include': ['ALL']}}",--LNKID is present in only one domain.,,"When --LNKID is present in a domain, it must also be present in another domain","{'all': [{'name': '--LNKGRP', 'operator': 'multiple_references', 'value': '$VALUE_COUNTS'}]}","{'id': '$VALUE_COUNTS', 'name': '--LNKGRP', 'operator': 'variable_value_counts'}"
CDISC.SDTMIG.CG0028,CG0028,CDISC,SDTMIG,"3.4,3.2,3.3",Draft,Domain,Record Data,Fully Executable,"{'Classes': {'Include': ['ALL']}, 'Domains': {'include_split_datasets': True, 'Exclude': ['TS']}}","--SEQ is not a unique number per USUBJID per domain, nor a unique number per POOLID per domain, including when the domain is split into multiple files","POOLID,SEQ","Excluding TS.TSSEQ, --SEQ must be a unique number per USUBJID per domain, or a unique number per POOLID per domain, including when the domain is split into multiple files.","{'all': [{'name': '--SEQ', 'operator': 'is_not_unique_set', 'value': '-""DOMAIN"" -""USUBJID""'}, {'name': '--SEQ', 'operator': 'is_not_unique_set', 'value': '-POOLID'}]}",
CDISC.SDTMIG.CG0035,CG0035,CDISC,SDTMIG,"3.4,3.3,3.2",Draft,Dataset,Record Data,Fully Executable,"{'Classes': {'Include': ['ALL']}, 'Domains': {'Include': ['ALL']}}",VISIT and VISITNUM do not have a one-to-one relationship,"VISITNUM,VISIT",Trigger error when VISITNUM is present in TV.VISITNUM and does not have a one-to-one relationship with VISIT,"{'all': [{'name': 'VISITNUM', 'operator': 'is_contained_by', 'value': '$tv_visitnum'}, {'name': 'VISIT', 'operator': 'is_not_unique_relationship', 'value': 'VISITNUM'}]}","{'domain': 'TV', 'id': '$tv_visitnum', 'name': 'VISITNUM', 'operator': 'distinct'}"
CDISC.SDTMIG.CG0037,CG0037,CDISC,SDTMIG,"3.4,3.3,3.2",Draft,Record,Record Data,Fully Executable,"{'Classes': {'Include': ['EVENTS']}, 'Domains': {'Exclude': ['DS', 'DV', 'HO']}}",Primary analysis was used but --SOCCD and --BDSYCD are not equal,"--TERM,--BDSYCD,--SOCCD",Raise an error when primary SOC is used for analysis and SOC Code is not equal to Body System Code,"{'all': [{'name': '--SOCCD', 'operator': 'not_equal_to', 'value': '--BDSYCD'}]}",
CDISC.SDTMIG.CG0043,CG0043,CDISC,SDTMIG,"3.4,3.2,3.3",Draft,Variable,Record Data,Fully Executable,"{'Classes': {'Include': ['EVENTS']}, 'Domains': {'Include': ['AE']}}","Missing SUPPAE.QNAM=AESOSP, where AESMIE=Y","AESOSP,AESMIE",When AESMIE=Y then SUPPAE.QNAM=AESOSP should be present,"{'all': [{'name': 'AESMIE', 'operator': 'equal_to', 'value': 'Y'}, {'name': 'QNAM', 'operator': 'equal_to', 'value': 'AESOSP'}, {'name': 'QVAL', 'operator': 'non_empty'}]}",
CDISC.SDTMIG.CG0047,CG0047,CDISC,SDTMIG,"3.4,3.2,3.3",Draft,Record,Record Data,Fully Executable,"{'Classes': {'Include': ['EVENTS']}, 'Domains': {'Include': ['ALL']}}",--MODIFY is not populated when --TERM has been modified for coding,,Trigger error when --TERM has been modified for coding and --MODIFY is null,"{'all': [{'name': None, 'operator': None}, {'name': '--MODIFY', 'operator': 'empty'}]}",
CDISC.SDTMIG.CG0063,CG0063,CDISC,SDTMIG,3.2,Draft,Record,Record Data,Fully Executable,"{'Classes': {'Include': ['EVENTS']}, 'Domains': {'Include': ['DS']}}",,,,{'all': []},
CDISC.SDTMIG.CG0066,CG0066,CDISC,SDTMIG,3.2,Draft,Record,Record Data,Fully Executable,"{'Classes': {'Include': ['EVENTS']}, 'Domains': {'Include': ['DS']}}",,,,{'all': []},
CDISC.SDTMIG.CG0068,CG0068,CDISC,SDTMIG,"3.4,3.2,3.3",Draft,Record,Record Data,Fully Executable,"{'Classes': {'Include': ['EVENTS']}, 'Domains': {'Include': ['DS']}}","The earliest disposition date for ""INFORMED CONSENT OBTAINED"" is not equal to DM.RFICDTC",,"When there are multiple informed consents obtained and DSDECOD = 'INFORMED CONSENT OBTAINED', the earliest DSSTDTC for each subject should be equal to DM.RFICDTC.","{'all': [{'operator': 'present_on_multiple_rows_within', 'target': 'DSDECOD', 'comparator': 'INFORMED CONSENT OBTAINED', 'within': 'USUBJID'}, {'name': 'DSDECOD', 'operator': 'equal_to', 'value': 'INFORMED CONSENT OBTAINED'}, {'name': '$min_ds_dsstdtc', 'operator': 'equal_to', 'value': '$dm_rficdtc'}]}","{'domain': 'DM', 'id': '$dm_rficdtc', 'name': 'USUBJID', 'operator': 'distinct'},{'domain': 'DS', 'id': '$min_ds_dsstdtc', 'name': 'DSSTDTC', 'operator': 'min_date', 'group': ['USUBJID']}"
CDISC.SDTMIG.CG0071,CG0071,CDISC,SDTMIG,"3.4,3.2,3.3",Draft,Record,Record Data,Fully Executable,"{'Classes': {'Include': ['EVENTS']}, 'Domains': {'Include': ['DS']}}",DSTERM does not equal 'COMPLETED' or the reason for discontinuation when DSCAT = 'DISPOSITION EVENT',,Trigger error when DSCAT = 'DISPOSITION EVENT' and DSTERM does not equal 'COMPLETED' or the reason for discontinuation,{'all': [{'name': None}]},
CDISC.SDTMIG.CG0073,CG0073,CDISC,SDTMIG,3.2,Draft,Record,Record Data,Fully Executable,"{'Classes': {'Include': ['EVENTS']}, 'Domains': {'Include': ['DS']}}",,,,{'all': []},
CDISC.SDTMIG.CG0076,CG0076,CDISC,SDTMIG,"3.4,3.2,3.3",Draft,Record,Record Data,Fully Executable,"{'Classes': {'Include': ['EVENTS']}, 'Domains': {'Include': ['DV']}}",Deviation event must not be derived deviation,,"Trigger error if deviation record is a derived variable, not a deviation that was collected",{'all': None},
CDISC.SDTMIG.CG0077,CG0077,CDISC,SDTMIG,"3.4,3.2,3.3",Draft,Dataset,Record Data,Fully Executable,"{'Classes': {'Include': ['EVENTS']}, 'Domains': {'Include': ['MH']}}","MHCAT is grouping all records into one generic group. If no smaller categorization can be applied, then it is not necessary to include or populate this variable.",MHCAT,"MHCAT should not group all records.  If no smaller categorization can be applied, then it is not necessary to include or populate this variable.","{'all': [{'name': 'MHCAT', 'operator': 'has_same_values'}]}",
CDISC.SDTMIG.CG0096,CG0096,CDISC,SDTMIG,"3.4,3.2,3.3",Draft,Record,Record Data,Fully Executable,"{'Classes': {'Include': ['INTERVENTIONS']}, 'Domains': {'Include': ['CM']}}",CMDECOD must be populated when CMTRT is populated,"CMTRT,CMDECOD","Raise an error when CMTRT is populated, CMDECOD is empty","{'all': [{'name': 'CMTRT', 'operator': 'non_empty'}, {'name': 'CMDECOD', 'operator': 'empty'}]}",
CDISC.SDTMIG.CG0097,CG0097,CDISC,SDTMIG,"3.4,3.2,3.3",Draft,Record,Record Data,Fully Executable,"{'Classes': {'Include': ['INTERVENTIONS']}, 'Domains': {'Include': ['CM']}}",CMTRT was not collected on CRF,,Trigger error if CMTRT was not collected on CRF,"{'all': [{'name': None, 'operator': None}, {'name': None, 'operator': None}]}",
CDISC.SDTMIG.CG0098,CG0098,CDISC,SDTMIG,"3.4,3.2,3.3",Draft,Record,Record Data,Fully Executable,"{'Classes': {'Include': ['INTERVENTIONS']}, 'Domains': {'Include': ['CM']}}",CMTRT must record the collected medication name only,,Trigger error if CMTRT contains more than just the medication name,"{'all': [{'name': None, 'operator': None}, {'name': None, 'operator': None}]}",
CDISC.SDTMIG.CG0099,CG0099,CDISC,SDTMIG,"3.4,3.2,3.3",Draft,Record,Record Data,Fully Executable,"{'Classes': {'Include': ['INTERVENTIONS']}, 'Domains': {'Include': ['CM', 'SU']}}",--MODIFY is null when --TRT represents an alteration to the collected value.,,Trigger error if --TRT represents an alteration to the collected value for coding purposes and --MODIFY is null,"{'all': [{'name': '--MODIFY', 'operator': 'empty'}]}",
CDISC.SDTMIG.CG0103,CG0103,CDISC,SDTMIG,"3.4,3.2,3.3",Draft,Domain,Record Data,Fully Executable,"{'Classes': {'Include': ['INTERVENTIONS']}, 'Domains': {'Include': ['EX']}}",EXDOSU is not expressed using protocol-specific units,,Trigger error if EXDOSU not expressed in protocol-specified units,"{'all': [{'name': 'EXDOSU', 'operator': 'not_equal_to', 'value': 'TS.TSVAL'}, {'name': 'TS.TSPARMCD', 'operator': 'starts_with', 'value': 'DOSU'}]}",
CDISC.SDTMIG.CG0104,CG0104,CDISC,SDTMIG,"3.4,3.2,3.3",Draft,Study,Record Data,Fully Executable,"{'Classes': {'Include': ['INTERVENTIONS']}, 'Domains': {'Include': ['EX']}}",EXTRT is not a protocol-specified treatment,,Trigger error if EXTRT is not the protocol-specified treatment,"{'all': [{'name': 'EXTRT', 'operator': 'not_equal_to', 'value': 'TS.TSVAL'}, {'name': 'TS.TSPARMCD', 'operator': 'starts_with', 'value': 'TRT'}]}",
CDISC.SDTMIG.CG0105,CG0105,CDISC,SDTMIG,"3.4,3.2,3.3",Draft,Dataset,Record Data,Fully Executable,"{'Classes': {'Include': ['INTERVENTIONS']}, 'Domains': {'Include': ['EX']}}",EXVAMT is present when EC exists.,EXVAMT,"When EC exists, EXVAMT should not be used.","{'all': [{'name': '$EXVAMT_EXISTS', 'operator': 'equal_to', 'value': True}, {'name': 'EC', 'operator': 'exists'}]}","{'domain': 'EX', 'id': '$EXVAMT_EXISTS', 'name': 'EXVAMT', 'operator': 'variable_exists'}"
CDISC.SDTMIG.CG0107,CG0107,CDISC,SDTMIG,"3.4,3.2,3.3",Draft,Dataset,Record Data,Fully Executable,"{'Classes': {'Include': ['INTERVENTIONS']}, 'Domains': {'Include': ['EX']}}",EXVAMTU is present when EC domain exists.,,"When EC exists, EXVAMTU should not be used.","{'all': [{'name': '$EXVAMTU_EXISTS', 'operator': 'equal_to', 'value': True}, {'name': 'EC', 'operator': 'exists'}]}","{'domain': 'EX', 'id': '$EXVAMTU_EXISTS', 'name': 'EXVAMTU', 'operator': 'variable_exists'}"
CDISC.SDTMIG.CG0109,CG0109,CDISC,SDTMIG,3.2,Draft,Record,Record Data,Fully Executable,"{'Classes': {'Include': ['SPECIAL PURPOSE']}, 'Domains': {'Include': ['DM']}}",,,,{'all': []},
CDISC.SDTMIG.CG0117,CG0117,CDISC,SDTMIG,3.2,Draft,Record,Record Data,Fully Executable,"{'Classes': {'Include': ['SPECIAL PURPOSE']}, 'Domains': {'Include': ['DM']}}",,,,{'all': []},
CDISC.SDTMIG.CG0118,CG0118,CDISC,SDTMIG,3.2,Draft,Record,Record Data,Fully Executable,"{'Classes': {'Include': ['SPECIAL PURPOSE']}, 'Domains': {'Include': ['DM']}}",,,,{'all': []},
CDISC.SDTMIG.CG0119,CG0119,CDISC,SDTMIG,3.2,Draft,Record,Record Data,Fully Executable,"{'Classes': {'Include': ['SPECIAL PURPOSE']}, 'Domains': {'Include': ['DM']}}",,,,{'all': []},
CDISC.SDTMIG.CG0120,CG0120,CDISC,SDTMIG,3.2,Draft,Record,Record Data,Fully Executable,"{'Classes': {'Include': ['SPECIAL PURPOSE']}, 'Domains': {'Include': ['DM']}}",,,,{'all': []},
CDISC.SDTMIG.CG0121,CG0121,CDISC,SDTMIG,3.2,Draft,Record,Record Data,Fully Executable,"{'Classes': {'Include': ['SPECIAL PURPOSE']}, 'Domains': {'Include': ['DM']}}",,,,{'all': []},
CDISC.SDTMIG.CG0122,CG0122,CDISC,SDTMIG,3.2,Draft,Record,Record Data,Fully Executable,"{'Classes': {'Include': ['SPECIAL PURPOSE']}, 'Domains': {'Include': ['DM']}}",,,,{'all': []},
CDISC.SDTMIG.CG0124,CG0124,CDISC,SDTMIG,3.2,Draft,Record,Record Data,Fully Executable,"{'Classes': {'Include': ['SPECIAL PURPOSE']}, 'Domains': {'Include': ['DM']}}",,,,{'all': []},
CDISC.SDTMIG.CG0125,CG0125,CDISC,SDTMIG,3.2,Draft,Record,Record Data,Fully Executable,"{'Classes': {'Include': ['SPECIAL PURPOSE']}, 'Domains': {'Include': ['DM']}}",,,,{'all': []},
CDISC.SDTMIG.CG0126,CG0126,CDISC,SDTMIG,3.2,Draft,Record,Record Data,Fully Executable,"{'Classes': {'Include': ['SPECIAL PURPOSE']}, 'Domains': {'Include': ['DM']}}",,,,{'all': []},
CDISC.SDTMIG.CG0127,CG0127,CDISC,SDTMIG,3.2,Draft,Record,Record Data,Fully Executable,"{'Classes': {'Include': ['SPECIAL PURPOSE']}, 'Domains': {'Include': ['DM']}}",,,,{'all': []},
CDISC.SDTMIG.CG0128,CG0128,CDISC,SDTMIG,3.2,Draft,Record,Record Data,Fully Executable,"{'Classes': {'Include': ['SPECIAL PURPOSE']}, 'Domains': {'Include': ['DM']}}",,,,{'all': []},
CDISC.SDTMIG.CG0129,CG0129,CDISC,SDTMIG,3.2,Draft,Record,Record Data,Fully Executable,"{'Classes': {'Include': ['SPECIAL PURPOSE']}, 'Domains': {'Include': ['DM']}}",,,,{'all': []},
CDISC.SDTMIG.CG0138,CG0138,CDISC,SDTMIG,3.2,Draft,Record,Record Data,Fully Executable,"{'Classes': {'Include': ['SPECIAL PURPOSE']}, 'Domains': {'Include': ['DM']}}",,,,{'all': []},
CDISC.SDTMIG.CG0140,CG0140,CDISC,SDTMIG,"3.2,3.3,3.4",Draft,Record,Record Data,Fully Executable,"{'Classes': {'Include': ['SPECIAL PURPOSE']}, 'Domains': {'Include': ['DM']}}",,,,{'all': []},
CDISC.SDTMIG.CG0141,CG0141,CDISC,SDTMIG,3.2,Draft,Record,Record Data,Fully Executable,"{'Classes': {'Include': ['SPECIAL PURPOSE']}, 'Domains': {'Include': ['DM']}}",,,,{'all': []},
CDISC.SDTMIG.CG0142,CG0142,CDISC,SDTMIG,3.2,Draft,Record,Record Data,Fully Executable,"{'Classes': {'Include': ['SPECIAL PURPOSE']}, 'Domains': {'Include': ['DM']}}",,,,{'all': []},
CDISC.SDTMIG.CG0143,CG0143,CDISC,SDTMIG,"3.4,3.2,3.3",Draft,Record,Record Data,Fully Executable,"{'Classes': {'Include': ['EVENTS']}, 'Domains': {'Include': ['DS']}}","DM.RFICDTC is not equal to the earliest DSSTDTC, when DSTERM indicates Informed consent obtained.","DSDECOD,RFICDTC,DSSTDTC,$min_ds_dsstdtc",DM.RFICDTC must equal the earliest DS.DSSTDTC when DSTERM indicates informed consent obtained.,"{'all': [{'name': 'DSTERM', 'operator': 'contains', 'value': 'INFORMED CONSENT'}, {'name': 'RFICDTC', 'operator': 'date_not_equal_to', 'value': '$min_ds_dsstdtc'}, {'name': 'DSTERM', 'operator': 'contains', 'value': 'OBTAINED'}]}","{'operator': 'min_date', 'domain': 'DS', 'name': 'DSSTDTC', 'id': '$min_ds_dsstdtc', 'group': ['USUBJID']}"
CDISC.SDTMIG.CG0145,CG0145,CDISC,SDTMIG,3.2,Draft,Record,Record Data,Fully Executable,"{'Classes': {'Include': ['SPECIAL PURPOSE']}, 'Domains': {'Include': ['DM']}}",,,,{'all': []},
CDISC.SDTMIG.CG0146,CG0146,CDISC,SDTMIG,3.2,Draft,Record,Record Data,Fully Executable,"{'Classes': {'Include': ['SPECIAL PURPOSE']}, 'Domains': {'Include': ['DM']}}",,,,{'all': []},
CDISC.SDTMIG.CG0151,CG0151,CDISC,SDTMIG,"3.4,3.2,3.3",Draft,Study,Record Data,Fully Executable,"{'Classes': {'Include': ['SPECIAL PURPOSE']}, 'Domains': {'Include': ['DM']}}",USUBJID is not unique within study,USUBJID,USUBJID must be unique across all studies,"{'all': [{'name': 'USUBJID', 'operator': 'is_not_unique_set', 'value': 'DOMAIN'}]}",
CDISC.SDTMIG.CG0155,CG0155,CDISC,SDTMIG,"3.4,3.2,3.3",Draft,Record,Record Data,Fully Executable,"{'Classes': {'Include': ['ALL']}, 'Domains': {'Include': ['AP']}}",AP Core Domain should start with 'AP' and length should be equal to 4.,,Raise error if variable label length = 4,"{'all': [{'name': 'DOMAIN', 'operator': 'starts_with', 'value': 'AP'}, {'name': 'DOMAIN', 'operator': 'matches_regex', 'value': '[A-Z]{0,4}$'}]}",
CDISC.SDTMIG.CG0156,CG0156,CDISC,SDTMIG,"3.2,3.3,3.4",Draft,Record,Record Data,Fully Executable,"{'Classes': {'Include': ['ALL']}, 'Domains': {'Include': ['AP--']}}",,,,{'all': []},
CDISC.SDTMIG.CG0157,CG0157,CDISC,SDTMIG,"3.4,3.2,3.3",Draft,Record,Record Data,Fully Executable,"{'Classes': {'Include': ['SPECIAL PURPOSE']}, 'Domains': {'Include': ['AP', 'DM']}}",RSUBJID is not in DM.USUBJID.,"APDM.RSUBJID,DM.USUBJID",Raise an error when RSUBJID in not in DM.USUBJID,"{'all': [{'name': 'RSUBJID', 'operator': 'is_not_contained_by', 'value': '$dm_rsubjid'}]}","{'domain': 'DM', 'id': '$dm_rsubjid', 'name': 'RSUBJID', 'operator': 'distinct'}"
CDISC.SDTMIG.CG0158,CG0158,CDISC,SDTMIG,"3.4,3.2,3.3",Draft,Record,Record Data,Fully Executable,"{'Classes': {'Include': ['ASSOCIATE PERSONS']}, 'Domains': {'Include': ['ALL']}}",RSUBJID is not in POOLDEF.POOLID,,Trigger error if relationship described is to a pool and RSUBJID is not in POOLDEF.POOLID,"{'all': [{'name': None, 'operator': None}, {'name': 'RSUBJID', 'operator': 'is_not_contained_by', 'value': 'POOLDEF.POOLID'}]}",
CDISC.SDTMIG.CG0159,CG0159,CDISC,SDTMIG,"3.4,3.2,3.3",Draft,Record,Record Data,Fully Executable,"{'Classes': {'Include': ['ASSOCIATED PERSONS']}, 'Domains': {'Include': ['ALL']}}",Relationship described is to a study (but not to individua study subject) and RSUBJID is not null,,Trigger error if relationship described is to a study (but not to individual study subject) and RSUBJID is not null,"{'all': [{'name': None, 'operator': None}, {'name': 'RSUBJID', 'operator': 'non_empty'}]}",
CDISC.SDTMIG.CG0160,CG0160,CDISC,SDTMIG,"3.4,3.2,3.3",Draft,Record,Record Data,Fully Executable,"{'Classes': {'Include': ['ASSOCIATED PERSONS']}, 'Domains': {'Include': ['ALL']}}",SREL does not describe the relationship of associated person to study subject or pool when RSUBJID is not null,,Trigger error when RSUBJID ^= null and SREL does not describe the relationship of associated person to study subject or pool,"{'all': [{'name': 'RSUBJID', 'operator': 'non_empty'}, {'name': 'SREL', 'operator': None}]}",
CDISC.SDTMIG.CG0161,CG0161,CDISC,SDTMIG,"3.4,3.2,3.3",Draft,Record,Record Data,Fully Executable,"{'Classes': {'Include': ['ASSOCIATED PERSONS']}, 'Domains': {'Include': ['ALL']}}",SREL does not describe relationship of associated person to device identified in RDEVID when RDEVID ^= null,,Trigger error when RDEVID ^= null and SREL does not describe relationship of associated person to device identified in RDEVID,"{'all': [{'name': 'RDEVID', 'operator': 'non_empty'}, {'name': 'SREL', 'operator': None}]}",
CDISC.SDTMIG.CG0162,CG0162,CDISC,SDTMIG,"3.4,3.2,3.3",Draft,Record,Record Data,Fully Executable,"{'Classes': {'Include': ['ASSOCIATED PERSONS']}, 'Domains': {'Include': ['ALL']}}",SREL does not describe the relationship of associated person to study identified in STUDYID when RSUBJID = null and RDEVID = null,,Trigger error when RSUBJID = null and RDEVID = null and SREL does not describe the relationship of associated person to study identified in STUDYID,"{'all': [{'name': 'RSUBJID', 'operator': 'is_empty'}, {'name': 'RDEVID', 'operator': 'is_empty'}, {'name': 'SREL', 'operator': None}]}",
CDISC.SDTMIG.CG0167,CG0167,CDISC,SDTMIG,"3.4,3.2,3.3",Draft,Record,Record Data,Fully Executable,"{'Classes': {'Include': ['SPECIAL PURPOSE']}, 'Domains': {'Include': ['CO']}}","Comments are not unsolicited, free-text and voluntary",,"Trigger error when comments are not unsolicited, free-text and voluntary","{'all': [{'name': None, 'operator': None}]}",
CDISC.SDTMIG.CG0169,CG0169,CDISC,SDTMIG,"3.4,3.2,3.3",Draft,Dataset,Record Data,Fully Executable,"{'Classes': {'Include': ['SPECIAL PURPOSE']}, 'Domains': {'Include': ['CO']}}",COVALn is present in dataset when no comments are greater than 200 characters,,Trigger error when there are no comments greater than 200 characters and COVALn is present,"{'all': [{'name': 'COVAL1', 'operator': 'exists'}, {'name': 'COVAL1', 'operator': 'empty'}]}",
CDISC.SDTMIG.CG0173,CG0173,CDISC,SDTMIG,"3.4,3.2,3.3",Draft,Record,Record Data,Fully Executable,"{'Classes': {'Include': ['FINDINGS']}, 'Domains': {'Include': ['FA']}}","collected data fits a Qualifier variable listed in SDTM Sections 2.2.1, 2.2.2, or 2.2.3, and are represented in the Findings About domain, and the name of the variable is used as FATESTCD",,"Trigger error when collected data fits a Qualifier variable listed in SDTM Sections 2.2.1, 2.2.2, or 2.2.3, and are represented in the Findings About domain, and the name of the variable is used as FATESTCD","{'all': [{'name': None, 'operator': None}, {'name': None, 'operator': None}]}",
CDISC.SDTMIG.CG0174,CG0174,CDISC,SDTMIG,"3.4,3.2,3.3",Draft,Record,Record Data,Fully Executable,"{'Classes': {'Include': ['FINDINGS']}, 'Domains': {'Include': ['FA']}}","Related record is present in the parent domain dataset and FAOBJ is not in (--TERM, --TRT, --DECOD)",,"Trigger error when a related record is present in the parent domain dataset and FAOBJ is not in (--TERM, --TRT, --DECOD)","{'all': [{'name': None, 'operator': None}, {'name': 'FAOBJ', 'operator': 'is_not_contained_by', 'value': ['--TERM']}, {'name': 'FAOBJ', 'operator': 'is_not_contained_by', 'value': ['--TERM']}, {'name': 'FAOBJ', 'operator': 'is_not_contained_by', 'value': ['--TERM']}]}",
CDISC.SDTMIG.CG0180,CG0180,CDISC,SDTMIG,"3.4,3.2,3.3",Draft,Record,Record Data,Partially Executable - Possible Underreporting,"{'Classes': {'Include': ['FINDINGS']}, 'Domains': {'Include': ['LB']}}",LBORRES is non empty and LBORNRLO is non empty.,,Raise an error when LBORRES ^= continuous measurement and LBORNRLO is not empty.,"{'all': [{'name': 'LBORRES', 'operator': 'non_empty'}, {'name': 'LBORNRLO', 'operator': 'non_empty'}]}",
CDISC.SDTMIG.CG0181,CG0181,CDISC,SDTMIG,"3.4,3.2,3.3",Draft,Record,Record Data,Partially Executable - Possible Underreporting,"{'Classes': {'Include': ['FINDINGS']}, 'Domains': {'Include': ['LB']}}",LBORRES is not empty and LBORNRHI is empty.,,Raise an error when LBORRES is not empty and LBORNRHI is empty.,"{'all': [{'name': 'LBORRES', 'operator': 'non_empty'}, {'name': 'LBORNRHI', 'operator': 'empty'}]}",
CDISC.SDTMIG.CG0182,CG0182,CDISC,SDTMIG,"3.4,3.2,3.3",Draft,Record,Record Data,Partially Executable - Possible Underreporting,"{'Classes': {'Include': ['FINDINGS']}, 'Domains': {'Include': ['LB']}}",LBORRES is not empty and LBSTNRLO is empty.,,Raise an error when LBORRES is not empty and LBSTNRLO is empty.,"{'all': [{'name': 'LBORRES', 'operator': 'non_empty'}, {'name': 'LBSTNRLO', 'operator': 'empty'}]}",
CDISC.SDTMIG.CG0183,CG0183,CDISC,SDTMIG,"3.4,3.2,3.3",Draft,Record,Record Data,Fully Executable,"{'Classes': {'Include': ['FINDINGS']}, 'Domains': {'Include': ['LB']}}",LBORRES is not empty and LBSTNRHI is empty.,,Raise an error when LBORRES is not empty and LBSTNRHI is empty.,"{'all': [{'name': 'LBORRES', 'operator': 'non_empty'}, {'name': 'LBSTNRHI', 'operator': 'empty'}]}",
CDISC.SDTMIG.CG0184,CG0184,CDISC,SDTMIG,"3.4,3.2,3.3",Draft,Record,Record Data,Fully Executable,"{'Classes': {'Include': ['FINDINGS']}, 'Domains': {'Include': ['LB']}}",LBSTNRC is populated when LBORRES is a continuous measurement,"USUBJID,RFXENDTC","When LBORRES is a continuous measurement, LBSTNRC should be null","{'all': [{'name': 'LBORRES', 'operator': 'matches_regex', 'value': '^[1-9]\\d*(\\.\\d+)?$'}, {'name': 'LBSTNRC', 'operator': 'non_empty'}]}",
CDISC.SDTMIG.CG0186,CG0186,CDISC,SDTMIG,"3.4,3.2,3.3",Draft,Record,Record Data,Fully Executable,"{'Classes': {'Include': ['FINDINGS']}, 'Domains': {'Include': ['LB']}}",LBORNRLO is not expressed using the units in LBORRESU,,LBORNRLO is expressed using the units in LBORRESU,"{'all': [{'name': 'LBORNRLO', 'operator': 'equal_to', 'value': 'LBORRESU'}]}",
CDISC.SDTMIG.CG0187,CG0187,CDISC,SDTMIG,"3.2,3.3,3.4",Draft,Record,Record Data,Fully Executable,"{'Classes': {'Include': ['FINDINGS']}, 'Domains': {'Include': ['LB']}}",,,,{'all': []},
CDISC.SDTMIG.CG0188,CG0188,CDISC,SDTMIG,"3.4,3.2,3.3",Draft,Record,Record Data,Fully Executable,"{'Classes': {'Include': ['FINDINGS']}, 'Domains': {'Include': ['LB']}}",LBORNRLO is not expressed using the units in LBSTRESU,,Trigger error if LBORNRLO is not expressed using the units in LBSTRESU,"{'all': [{'name': 'LBSTRESU', 'operator': 'non_empty'}, {'name': 'LBORRESU', 'operator': 'equals', 'value': 'LBSTRESU'}, {'name': 'LBORNRLO', 'operator': 'not_equals', 'value': 'LBSTNRLO'}]}",
CDISC.SDTMIG.CG0189,CG0189,CDISC,SDTMIG,"3.4,3.2,3.3",Draft,Record,Record Data,Fully Executable,"{'Classes': {'Include': ['FINDINGS']}, 'Domains': {'Include': ['LB']}}",LBSTNRHI is not expressed using the units in LBSTRESU,,Trigger error if LBSTNRHI is not expressed using the units in LBSTRESU,"{'all': [{'name': 'LBSTRESU', 'operator': 'non_empty'}, {'name': 'LBORRESU', 'operator': 'equals', 'value': 'LBSTRESU'}, {'name': 'LBORNRHI', 'operator': 'not_equals', 'value': 'LBSTNRHI'}]}",
CDISC.SDTMIG.CG0190,CG0190,CDISC,SDTMIG,"3.4,3.2,3.3",Draft,Record,Record Data,Fully Executable,"{'Classes': {'Include': ['FINDINGS']}, 'Domains': {'Include': ['LB']}}",LBSTNRC is not expressed using the units in LBSTRESU when LBSTRESU is populated.,,Trigger error if LBSTRESU is not null and LBSTNRC is not expressed using the units in LBSTRESU,"{'all': [{'name': 'LBSTRESU', 'operator': 'non_empty'}, {'name': None, 'operator': None, 'value': None}]}",
CDISC.SDTMIG.CG0192,CG0192,CDISC,SDTMIG,3.2,Draft,Record,Record Data,Fully Executable,"{'Classes': {'Include': ['FINDINGS']}, 'Domains': {'Include': ['MB']}}",,,,{'all': []},
CDISC.SDTMIG.CG0193,CG0193,CDISC,SDTMIG,3.2,Draft,Record,Record Data,Fully Executable,"{'Classes': {'Include': ['FINDINGS']}, 'Domains': {'Include': ['MB']}}",,,,{'all': []},
CDISC.SDTMIG.CG0196,CG0196,CDISC,SDTMIG,"3.2,3.3,3.4",Draft,Record,Record Data,Fully Executable,"{'Classes': {'Include': ['FINDINGS']}, 'Domains': {'Include': ['PE']}}",,,,{'all': []},
CDISC.SDTMIG.CG0197,CG0197,CDISC,SDTMIG,"3.4,3.2,3.3",Draft,Record,Record Data,Fully Executable,"{'Classes': {'Include': ['FINDINGS']}, 'Domains': {'Include': ['PE']}}",PESTRESC does not equal PEORRES OR a dictionary coded preferred term,PESTRESC,Trigger error when PESTRESC ^= null but PESTRESC does not equal PEORRES OR a dictionary coded preferred term,"{'all': [{'name': 'PESTRESC', 'operator': 'non_empty'}, {'any': [{'name': 'PESTRESC', 'operator': 'equal_to', 'value': 'PEORRES'}, {'name': 'PESTRES', 'operator': 'is_contained_by', 'value': None}]}]}",
CDISC.SDTMIG.CG0198,CG0198,CDISC,SDTMIG,"3.4,3.2,3.3",Draft,Record,Record Data,Fully Executable,"{'Classes': {'Include': ['SPECIAL PURPOSE']}, 'Domains': {'Include': ['RELREC']}}",Relationship represented in RELREC is not a collected relationship,,Trigger error when relationship represented in RELREC is not a collected relationship,"{'all': [{'name': None, 'operator': None}, {'name': None, 'operator': None}]}",
CDISC.SDTMIG.CG0200,CG0200,CDISC,SDTMIG,"3.4,3.2,3.3",Draft,Dataset,Record Data,Fully Executable,"{'Classes': {'Include': ['SPECIAL PURPOSE']}, 'Domains': {'Include': ['RELREC']}}",Unique RELID is NOT present on multiple RELREC records within a subject.,,"Within a subject, each unique RELID should be present on multiple RELREC records","{'all': [{'operator': 'not_present_on_multiple_rows_within', 'target': 'RELID', 'within': 'USUBJID'}]}",
CDISC.SDTMIG.CG0202,CG0202,CDISC,SDTMIG,"3.2,3.3",Draft,Record,Record Data,Fully Executable,"{'Classes': {'Include': ['SPECIAL PURPOSE']}, 'Domains': {'Include': ['SUPP--']}}",,,,{'all': []},
CDISC.SDTMIG.CG0205,CG0205,CDISC,SDTMIG,"3.4,3.2,3.3",Draft,Dataset,Dataset Metadata Check,Fully Executable,"{'Classes': {'Include': ['ALL']}, 'Domains': {'Include': ['SUPP--']}}",Length of dataset name of SUPP-- dataset is greater than 8.,,Trigger error if length of dataset name is greater than 8,"{'all': [{'name': 'dataset_name', 'operator': 'longer_than', 'value': 8}]}",
CDISC.SDTMIG.CG0207,CG0207,CDISC,SDTMIG,"3.4,3.2,3.3",Draft,Record,Record Data,Fully Executable,"{'Classes': {'Include': ['SPECIAL PURPOSE']}, 'Domains': {'Include': ['SE']}}",SEENDTC is not equal to SESTDTC of the next element.,,Trigger error where SEENDTC is not equal to SESTDTC of the next element.,"{'all': [{'name': 'SEENDTC', 'operator': 'has_next_corresponding_record', 'value': 'SESTDTC', 'within': 'USUBJID', 'ordering': 'SESEQ'}]}",
CDISC.SDTMIG.CG0209,CG0209,CDISC,SDTMIG,"3.4,3.2,3.3",Draft,Record,Record Data,Fully Executable,"{'Classes': {'Include': ['SPECIAL PURPOSE']}, 'Domains': {'Include': ['SE']}}",SEENDTC is null when element is not the last.,,Trigger error where element is not the last element and SEENDTC is null.,"{'all': [{'name': 'SEENDTC', 'operator': 'empty_within_except_last_row', 'value': 'USUBJID'}]}",
CDISC.SDTMIG.CG0213,CG0213,CDISC,SDTMIG,"3.2,3.3",Draft,Record,Record Data,Fully Executable,"{'Classes': {'Include': ['SPECIAL PURPOSE']}, 'Domains': {'Include': ['SV']}}",,,,{'all': []},
CDISC.SDTMIG.CG0214,CG0214,CDISC,SDTMIG,"3.2,3.3",Draft,Record,Record Data,Fully Executable,"{'Classes': {'Include': ['SPECIAL PURPOSE']}, 'Domains': {'Include': ['SV']}}",,,,{'all': []},
CDISC.SDTMIG.CG0215,CG0215,CDISC,SDTMIG,"3.2,3.3",Draft,Record,Record Data,Fully Executable,"{'Classes': {'Include': ['SPECIAL PURPOSE']}, 'Domains': {'Include': ['SV']}}",,,,{'all': []},
CDISC.SDTMIG.CG0216,CG0216,CDISC,SDTMIG,"3.2,3.3",Draft,Record,Record Data,Fully Executable,"{'Classes': {'Include': ['SPECIAL PURPOSE']}, 'Domains': {'Include': ['SV']}}",,,,{'all': []},
CDISC.SDTMIG.CG0217,CG0217,CDISC,SDTMIG,"3.4,3.2,3.3",Draft,Record,Record Data,Fully Executable,"{'Classes': {'Include': ['SPECIAL PURPOSE']}, 'Domains': {'Include': ['SV']}}",TAETORD values don't match between Subject Visits (SV) and Subject Elements (SE) datasets.,,Raise an error when variable TAETORD values don't match between Subject Visits (SV) and Subject Elements (SE) datasets.,"{'all': [{'name': 'TAETORD', 'operator': 'exists'}, {'name': 'SVSTDTC', 'operator': 'date_greater_than_or_equal_to', 'value': 'SESTDTC'}, {'name': 'SVSTDTC', 'operator': 'date_less_than_or_equal_to', 'value': 'SEENDTC'}, {'name': 'TAETORD', 'operator': 'not_equal_to', 'value': 'SE.TAETORD'}]}",
CDISC.SDTMIG.CG0219,CG0219,CDISC,SDTMIG,"3.4,3.2,3.3",Draft,Dataset,Record Data,Fully Executable,"{'Classes': {'Include': ['INTERVENTIONS', 'FINDINGS', 'EVENTS']}, 'Domains': {'Exclude': ['IE', 'SC']}}",No timing variable present in dataset.,,"In general, all domains based on the three general observation classes should have at least one Timing variable.","{'all': [{'name': 'TAETORD', 'operator': 'not_exists'}, {'name': 'EPOCH', 'operator': 'not_exists'}, {'name': '--STDTC', 'operator': 'not_exists'}, {'name': '--ENDTC', 'operator': 'not_exists'}, {'name': '--DTC', 'operator': 'not_exists'}, {'name': '--STDY', 'operator': 'not_exists'}, {'name': '--ENDY', 'operator': 'not_exists'}, {'name': '--DY', 'operator': 'not_exists'}, {'name': '--DUR', 'operator': 'not_exists'}, {'name': '--TPT', 'operator': 'not_exists'}, {'name': '--TPTNUM', 'operator': 'not_exists'}, {'name': '--REPNUM', 'operator': 'not_exists'}, {'name': '--STRF', 'operator': 'not_exists'}, {'name': '--STRTPT', 'operator': 'not_exists'}, {'name': '--STTPT', 'operator': 'not_exists'}, {'name': '--ENRF', 'operator': 'not_exists'}, {'name': '--ENRTPT', 'operator': 'not_exists'}, {'name': '--ENTPT', 'operator': 'not_exists'}]}",
CDISC.SDTMIG.CG0220,CG0220,CDISC,SDTMIG,"3.4,3.2,3.3",Draft,Record,Record Data,Fully Executable,"{'Classes': {'Include': ['ALL']}, 'Domains': {'Exclude': ['DM']}}",--STDY is not properly calculated per study day algorithm,,Study day must be calculated using the algorithm detailed in the SDTMIG.,"{'all': [{'any': [{'name': '--STDTC', 'operator': 'is_complete_date'}, {'name': 'RFSTDTC', 'operator': 'is_complete_date'}]}, {'name': '--STDY', 'operator': 'equal_to', 'value': '$val_stdy'}]}","{'name': 'RFSTDTC', 'operator': 'dy', 'domain': 'DM', 'id': '$val_stdy'}"
CDISC.SDTMIG.CG0222,CG0222,CDISC,SDTMIG,"3.4,3.2,3.3",Draft,Record,Record Data,Fully Executable,"{'Classes': {'Include': ['ALL']}, 'Domains': {'Exclude': ['DM']}}",--ENDY is not properly calculated per study day algorithm,,Study day must be calculated using the algorithm detailed in the SDTMIG.,"{'all': [{'name': '--ENDTC', 'operator': 'is_complete_date'}, {'name': '--ENDY', 'operator': 'not_equal_to', 'value': '$val_stdy'}]}","{'name': 'RFSTDTC', 'operator': 'dy', 'domain': 'DM', 'id': '$val_stdy'}"
CDISC.SDTMIG.CG0232,"CG0232,CG0233",CDISC,SDTMIG,"3.4,3.2,3.3",Draft,Record,Record Data,Fully Executable,"{'Classes': {'Include': ['ALL']}, 'Domains': {'Include': ['ALL']}}","--STRTPT is not in ('BEFORE', 'COINCIDENT', 'AFTER', 'UNKNOWN')",,"Trigger error when --STRTPT is not in ('BEFORE', 'COINCIDENT', 'AFTER', 'UNKNOWN')","{'all': [{'name': '--STTPT', 'operator': 'non_empty'}, {'name': '--STRTPT', 'operator': 'is_contained_by', 'value': ['BEFORE', 'COINCIDENT', 'AFTER', 'UNKNOWN']}]}",
CDISC.SDTMIG.CG0234,"CG0234,CG0235",CDISC,SDTMIG,"3.4,3.2,3.3",Draft,Record,Record Data,Fully Executable,"{'Classes': {'Include': ['ALL']}, 'Domains': {'Include': ['ALL']}}","--ENRTPT is not in ('BEFORE', 'COINCIDENT', 'ONGOING', 'AFTER', 'UNKNOWN')","--ENTPT,--ENRTPT","Trigger error when --ENRTPT is not in ('BEFORE', 'COINCIDENT', 'ONGOING', 'AFTER', 'UNKNOWN')","{'all': [{'name': '--ENTPT', 'operator': 'non_empty'}, {'name': '--ENRTPT', 'operator': 'is_contained_by', 'value': ['BEFORE', 'COINCIDENT', 'ONGOING', 'AFTER', 'UNKNOWN']}]}",
CDISC.SDTMIG.CG0236,CG0236,CDISC,SDTMIG,"3.4,3.2,3.3",Draft,Record,Record Data,Fully Executable,"{'Classes': {'Include': ['FINDINGS']}, 'Domains': {'Include': ['ALL']}}","--DTC is date/time of recording/acquisition, not date/time of specimen collection or observation",,"Trigger error when --DTC is date/time of recording/acquisition, not date/time of specimen collection or observation","{'all': [{'name': None, 'operator': None}]}",
CDISC.SDTMIG.CG0237,CG0237,CDISC,SDTMIG,"3.4,3.2,3.3",Draft,Record,Record Data,Fully Executable,"{'Classes': {'Include': ['EVENTS', 'INTERVENTIONS']}, 'Domains': {'Include': ['ALL']}}",--DTC is present in dataset and is not populated with the date/time of recording/data acquisition,,Trigger error when --DTC is present and not populated with the date/time of recording/data acquisition,"{'all': [{'name': '--DTC', 'operator': 'exists'}, {'name': None, 'operator': None}]}",
CDISC.SDTMIG.CG0238,CG0238,CDISC,SDTMIG,"3.4,3.2,3.3",Draft,Record,Record Data,Fully Executable,"{'Classes': {'Include': ['FINDINGS']}, 'Domains': {'Include': ['ALL']}}",--ORRES date/time value is not in ISO 8601 date format,,"Where -ORRES is a date or time, it must be entered in an ISO 8601 format","{'all': [{'any': [{'name': '--TEST', 'operator': 'contains_case_insensitive', 'value': 'date'}, {'name': '--TEST', 'operator': 'contains_case_insensitive', 'value': 'time'}]}, {'name': '--ORRES', 'operator': 'not_matches_regex', 'value': '^([\\+-]?\\d{4}(?!\\d{2}\\b))((-?)((0[1-9]|1[0-2])(\\3([12]\\d|0[1-9]|3[01]))?|W([0-4]\\d|5[0-2])(-?[1-7])?|(00[1-9]|0[1-9]\\d|[12]\\d{2}|3([0-5]\\d|6[1-6])))([T\\s]((([01]\\d|2[0-3])((:?)[0-5]\\d)?|24\\:?00)([\\.,]\\d+(?!:))?)?(\\17[0-5]\\d([\\.,]\\d+)?)?([zZ]|([\\+-])([01]\\d|2[0-3]):?([0-5]\\d)?)?)?)?$'}]}",
CDISC.SDTMIG.CG0244,CG0244,CDISC,SDTMIG,3.2,Draft,Record,Record Data,Fully Executable,"{'Classes': {'Include': ['TRIAL DESIGN']}, 'Domains': {'Include': ['TA', 'TV']}}",,,,{'all': []},
CDISC.SDTMIG.CG0248,CG0248,CDISC,SDTMIG,"3.4,3.2,3.3",Draft,Value,Record Data,Fully Executable,"{'Classes': {'Include': ['TRIAL DESIGN']}, 'Domains': {'Include': ['TA']}}",TAETORD is not an integer,TAETORD,TAETORD must be an integer,"{'all': [{'name': 'TAETORD', 'operator': 'not_matches_regex', 'value': '(-?[1-9]\\d*|0)$'}]}",
CDISC.SDTMIG.CG0249,CG0249,CDISC,SDTMIG,"3.4,3.2,3.3",Draft,Record,Record Data,Fully Executable,"{'Classes': {'Include': ['TRIAL DESIGN']}, 'Domains': {'Include': ['TA']}}",TATRANS is populated when the element does not end with a decision that could lead to a shortened path within the Arm,,Trigger error when element does not end with a decision that could lead to a shortened path within the Arm and TATRANS is not null,"{'all': [{'name': None, 'operator': None}, {'name': 'TATRANS', 'operator': 'non_empty'}]}",
CDISC.SDTMIG.CG0250,CG0250,CDISC,SDTMIG,"3.4,3.2,3.3",Draft,Study,Record Data,Fully Executable,"{'Classes': {'Include': ['TRIAL DESIGN']}, 'Domains': {'Include': ['TA']}}",At least one EPOCH is associated with more than one conceptual trial period,,Trigger error when at least one EPOCH is associated with more than one conceptual trial period,"{'all': [{'name': None, 'operator': None}]}",
CDISC.SDTMIG.CG0251,CG0251,CDISC,SDTMIG,"3.4,3.2,3.3",Draft,Record,Record Data,Fully Executable,"{'Classes': {'Include': ['TRIAL DESIGN']}, 'Domains': {'Include': ['TA']}}",TABRANCH is null when trial design branches,,Trigger error when trial design branches and TABRANCH is null,"{'all': [{'name': None, 'operator': None}, {'name': 'TABRANCH', 'operator': 'empty'}]}",
CDISC.SDTMIG.CG0252,CG0252,CDISC,SDTMIG,"3.4,3.2,3.3",Draft,Record,Record Data,Fully Executable,"{'Classes': {'Include': ['TRIAL DESIGN']}, 'Domains': {'Include': ['TA']}}",TATRANS is null when trial Design allows for a Subject to transition to an Element other than the next Element in sequence,,"Trigger error when trial Design allows for a Subject to transition to an Element other than the next Element in sequence, and TATRANS is null","{'all': [{'name': None, 'operator': None}, {'name': 'TATRANS', 'operator': 'empty'}]}",
CDISC.SDTMIG.CG0253,CG0253,CDISC,SDTMIG,"3.4,3.2,3.3",Draft,Study,Record Data,Fully Executable,"{'Classes': {'Include': ['TRIAL DESIGN']}, 'Domains': {'Include': ['TI']}}",TIVERS is null when there is more than one version of the IE criteria in study documentation,,Trigger error when TIVERS is null and there is more than one version of the IE criteria in study documentation,"{'all': [{'name': None, 'operator': None}, {'name': 'TIVERS', 'operator': 'is_empty'}]}",
CDISC.SDTMIG.CG0254,CG0254,CDISC,SDTMIG,"3.4,3.2,3.3",Draft,Study,Record Data,Fully Executable,"{'Classes': {'Include': ['TRIAL DESIGN']}, 'Domains': {'Include': ['TI']}}",TIVERS is not present in the data when there is more than one version of the IE criteria,,Trigger error when TIVERS is not present in the data and there is more than one version of the IE criteria,"{'all': [{'name': None, 'operator': None}, {'name': 'TIVERS', 'operator': 'exists'}]}",
CDISC.SDTMIG.CG0262,CG0262,CDISC,SDTMIG,"3.4,3.2,3.3",Draft,Record,Record Data,Fully Executable,"{'Classes': {'Include': ['TRIAL DESIGN']}, 'Domains': {'Include': ['TS']}}",TSVALn is null when TSVAL(n+1) is populated.,,Trigger error when TSVAL(n+1) ^= null and TSVALn = null,"{'all': [{'operator': 'additional_columns_empty', 'target': '--VAL'}]}",
CDISC.SDTMIG.CG0267,CG0267,CDISC,SDTMIG,"3.4,3.2,3.3",Draft,Record,Record Data,Fully Executable,"{'Classes': {'Include': ['TRIAL DESIGN']}, 'Domains': {'Include': ['TS']}}",TSVCDVER is null when Reference Terminology is versioned,,Trigger error when Reference Terminology is versioned and TSVCDVER is null,"{'all': [{'name': 'TSVCDREF', 'operator': 'is_contained_by', 'value': None}, {'name': 'TSVCDVER', 'operator': 'is_empty'}]}",
CDISC.SDTMIG.CG0269,CG0269,CDISC,SDTMIG,"3.2,3.3",Draft,Record,Record Data,Fully Executable,"{'Classes': {'Include': ['TRIAL DESIGN']}, 'Domains': {'Include': ['TS']}}",,,,{'all': []},
CDISC.SDTMIG.CG0270,CG0270,CDISC,SDTMIG,"3.4,3.2,3.3",Draft,Record,Record Data,Fully Executable,"{'Classes': {'Include': ['TRIAL DESIGN']}, 'Domains': {'Include': ['TS']}}",TSVAL does not conform to ISO 8601,,Trigger error when TSPARMCD = 'AGEMAX' and TSVAL ^= null and TSVAL does not conform to ISO 8601,"{'all': [{'name': 'TSPARMCD', 'operator': 'equal_to', 'value': 'AGEMAX'}, {'name': 'TSVAL', 'operator': 'non_empty'}, {'any': [{'name': 'TSVAL', 'operator': 'not_matches_regex', 'value': '^P(?!$)(\\d+(?:\\.\\d+)?Y)?(\\d+(?:\\.\\d+)?M)?(\\d+(?:\\.\\d+)?W)?(\\d+(?:\\.\\d+)?D)?(T(?=\\d)(\\d+(?:\\.\\d+)?H)?(\\d+(?:\\.\\d+)?M)?(\\d+(?:\\.\\d+)?S)?)?$'}]}]}",
CDISC.SDTMIG.CG0271,CG0271,CDISC,SDTMIG,"3.2,3.3",Draft,Record,Record Data,Fully Executable,"{'Classes': {'Include': ['TRIAL DESIGN']}, 'Domains': {'Include': ['TS']}}",,,,{'all': []},
CDISC.SDTMIG.CG0272,CG0272,CDISC,SDTMIG,"3.2,3.3",Draft,Record,Record Data,Fully Executable,"{'Classes': {'Include': ['TRIAL DESIGN']}, 'Domains': {'Include': ['TS']}}",,,,{'all': []},
CDISC.SDTMIG.CG0273,CG0273,CDISC,SDTMIG,"3.2,3.3",Draft,Record,Record Data,Fully Executable,"{'Classes': {'Include': ['TRIAL DESIGN']}, 'Domains': {'Include': ['TS']}}",,,,{'all': []},
CDISC.SDTMIG.CG0275,CG0275,CDISC,SDTMIG,"3.2,3.3",Draft,Record,Record Data,Fully Executable,"{'Classes': {'Include': ['TRIAL DESIGN']}, 'Domains': {'Include': ['TS']}}",,,,{'all': []},
CDISC.SDTMIG.CG0276,CG0276,CDISC,SDTMIG,"3.2,3.3",Draft,Record,Record Data,Fully Executable,"{'Classes': {'Include': ['TRIAL DESIGN']}, 'Domains': {'Include': ['TS']}}",,,,{'all': []},
CDISC.SDTMIG.CG0277,CG0277,CDISC,SDTMIG,"3.2,3.3",Draft,Record,Record Data,Fully Executable,"{'Classes': {'Include': ['TRIAL DESIGN']}, 'Domains': {'Include': ['TS']}}",,,,{'all': []},
CDISC.SDTMIG.CG0278,CG0278,CDISC,SDTMIG,"3.2,3.3",Draft,Record,Record Data,Fully Executable,"{'Classes': {'Include': ['TRIAL DESIGN']}, 'Domains': {'Include': ['TS']}}",,,,{'all': []},
CDISC.SDTMIG.CG0279,CG0279,CDISC,SDTMIG,"3.2,3.3",Draft,Record,Record Data,Fully Executable,"{'Classes': {'Include': ['TRIAL DESIGN']}, 'Domains': {'Include': ['TS']}}",,,,{'all': []},
CDISC.SDTMIG.CG0280,CG0280,CDISC,SDTMIG,"3.2,3.3",Draft,Record,Record Data,Fully Executable,"{'Classes': {'Include': ['TRIAL DESIGN']}, 'Domains': {'Include': ['TS']}}",,,,{'all': []},
CDISC.SDTMIG.CG0281,CG0281,CDISC,SDTMIG,"3.2,3.3",Draft,Record,Record Data,Fully Executable,"{'Classes': {'Include': ['TRIAL DESIGN']}, 'Domains': {'Include': ['TS']}}",,,,{'all': []},
CDISC.SDTMIG.CG0282,CG0282,CDISC,SDTMIG,"3.2,3.3",Draft,Record,Record Data,Fully Executable,"{'Classes': {'Include': ['TRIAL DESIGN']}, 'Domains': {'Include': ['TS']}}",,,,{'all': []},
CDISC.SDTMIG.CG0283,CG0283,CDISC,SDTMIG,"3.2,3.3",Draft,Record,Record Data,Fully Executable,"{'Classes': {'Include': ['TRIAL DESIGN']}, 'Domains': {'Include': ['TS']}}",,,,{'all': []},
CDISC.SDTMIG.CG0284,CG0284,CDISC,SDTMIG,"3.2,3.3",Draft,Record,Record Data,Fully Executable,"{'Classes': {'Include': ['TRIAL DESIGN']}, 'Domains': {'Include': ['TS']}}",,,,{'all': []},
CDISC.SDTMIG.CG0285,CG0285,CDISC,SDTMIG,"3.2,3.3",Draft,Record,Record Data,Fully Executable,"{'Classes': {'Include': ['TRIAL DESIGN']}, 'Domains': {'Include': ['TS']}}",,,,{'all': []},
CDISC.SDTMIG.CG0286,CG0286,CDISC,SDTMIG,"3.2,3.3",Draft,Record,Record Data,Fully Executable,"{'Classes': {'Include': ['TRIAL DESIGN']}, 'Domains': {'Include': ['TS']}}",,,,{'all': []},
CDISC.SDTMIG.CG0287,CG0287,CDISC,SDTMIG,"3.2,3.3",Draft,Record,Record Data,Fully Executable,"{'Classes': {'Include': ['TRIAL DESIGN']}, 'Domains': {'Include': ['TS']}}",,,,{'all': []},
CDISC.SDTMIG.CG0288,CG0288,CDISC,SDTMIG,"3.4,3.2,3.3",Draft,Record,Record Data,Fully Executable,"{'Classes': {'Include': ['TRIAL DESIGN']}, 'Domains': {'Include': ['TS']}}",TSVALCD is not a valid code in the version identified in TSVCDVER,,Trigger error when TSVCDREF='CDISC' and TSVALCD is not a valid code in the version identified in TSVCDVER,"{'all': [{'name': 'TSVCDREF', 'operator': 'equal_to', 'value': 'CDISC'}, {'name': 'TSVALCD', 'operator': 'is_contained_by', 'value': None}]}",
CDISC.SDTMIG.CG0289,CG0289,CDISC,SDTMIG,"3.4,3.2,3.3",Draft,Record,Record Data,Fully Executable,"{'Classes': {'Include': ['TRIAL DESIGN']}, 'Domains': {'Include': ['TS']}}",TSVCDVER is not a valid published version (date),,Trigger error when TSVCDREF = 'CDISC' and TSVCDVER is not a valid published version (date),"{'all': [{'name': 'TSVCDREF', 'operator': 'equal_to', 'value': 'CDISC'}, {'name': 'TSVCDVER', 'operator': 'is_contained_by', 'value': None}]}",
CDISC.SDTMIG.CG0291,CG0291,CDISC,SDTMIG,"3.4,3.2,3.3",Draft,Record,Record Data,Fully Executable,"{'Classes': {'Include': ['TRIAL DESIGN']}, 'Domains': {'Include': ['TS']}}",TSVAL is populated with an ISO 21090 or null flavor term,,"When TSVALNF is null, TSVAL should not be populated with an ISO 21090 term or other null flavor.  This rule has been executed with the understanding that non-ISO 21090 terms may not be flagged, and there may be exceptions where the term has been used appropriately.","{'all': [{'name': 'TSVALNF', 'operator': 'empty'}, {'name': 'TSVAL', 'operator': 'prefix_matches_regex', 'value': '(NI|OTH|NINF|PINF|UNK|ASKU|NAV|NASK|TRC|MSK|NA|QS)'}]}",
CDISC.SDTMIG.CG0295,CG0295,CDISC,SDTMIG,"3.4,3.2,3.3",Draft,Dataset,Record Data,Fully Executable,"{'Classes': {'Include': ['TRIAL DESIGN']}, 'Domains': {'Include': ['TV']}}",ARMCD is populated and the timing and number of Visits for a trial does not depend on which ARM a subject is in,,Trigger error when ARMCD is populated and the timing and number of Visits for a trial does not depend on which ARM a subject is in,"{'all': [{'name': None, 'operator': None}, {'name': 'ARMCD', 'operator': 'non_empty'}]}",
CDISC.SDTMIG.CG0296,CG0296,CDISC,SDTMIG,"3.4,3.2,3.3",Draft,Dataset,Record Data,Fully Executable,"{'Classes': {'Include': ['TRIAL DESIGN']}, 'Domains': {'Include': ['TV']}}",,,Trigger error when ARM is populated and the timing and number of Visits for a trial does not depend on which ARM a subject is in,"{'all': [{'name': None, 'operator': None}, {'name': 'ARM', 'operator': 'non_empty'}]}",
CDISC.SDTMIG.CG0298,CG0298,CDISC,SDTMIG,"3.4,3.2,3.3",Draft,Record,Record Data,Fully Executable,"{'Classes': {'Include': ['TRIAL DESIGN']}, 'Domains': {'Include': ['TV']}}",VISIT is not described in the protocol,,Trigger error when a visit is not described in the protocol,"{'all': [{'name': None, 'operator': None}]}",
CDISC.SDTMIG.CG0303,CG0303,CDISC,SDTMIG,3.2,Draft,Record,Record Data,Fully Executable,"{'Classes': {'Include': ['ALL']}, 'Domains': {'Include': ['ALL']}}",,,,{'all': []},
CDISC.SDTMIG.CG0312,CG0312,CDISC,SDTMIG,"3.4,3.2,3.3",Draft,Domain,Dataset Metadata Check against Define XML,Fully Executable,"{'Classes': {'Include': ['ALL']}, 'Domains': {'Include': ['ALL']}}",Custom domains use the reserved or modelled standard names.,,Raise an error when custom domains use the reserved or modelled standard names,"{'any': [{'all': [{'name': 'define_dataset_class', 'operator': 'str_equal_to', 'value': 'TRIAL DESIGN'}, {'name': 'define_dataset_name', 'operator': 'is_not_contained_by', 'value': ['TA', 'TD', 'TE', 'TI', 'TM', 'TS', 'TV']}]}, {'all': [{'name': 'define_dataset_class', 'operator': 'str_equal_to', 'value': 'SPECIAL PURPOSE'}, {'name': 'define_dataset_name', 'operator': 'is_not_contained_by', 'value': ['CO', 'DM', 'SE', 'SM', 'SV']}]}, {'all': [{'name': 'define_dataset_class', 'operator': 'str_equal_to', 'value': 'INTERVENTIONS'}, {'name': 'define_dataset_name', 'operator': 'is_not_contained_by', 'value': ['AG', 'CM', 'EC', 'EX', 'ML', 'PR', 'SU']}]}, {'all': [{'name': 'define_dataset_class', 'operator': 'str_equal_to', 'value': 'EVENTS'}, {'name': 'define_dataset_name', 'operator': 'is_not_contained_by', 'value': ['AE', 'BE', 'CE', 'DS', 'DV', 'HO', 'MH']}]}, {'all': [{'name': 'define_dataset_class', 'operator': 'str_equal_to', 'value': 'FINDINGS'}, {'name': 'define_dataset_name', 'operator': 'is_not_contained_by', 'value': ['BS', 'CP', 'CV', 'DA', 'DD', 'EG', 'FT', 'GF', 'IE', 'IS', 'LB', 'MB', 'MI', 'MK', 'MS', 'NV', 'OE', 'PC', 'PE', 'PP', 'QS', 'RE', 'RP', 'RS', 'SC', 'SS', 'TR', 'TU', 'UR', 'VS']}]}, {'all': [{'name': 'define_dataset_class', 'operator': 'str_equal_to', 'value': 'FINDINGS ABOUT'}, {'name': 'define_dataset_name', 'operator': 'is_not_contained_by', 'value': ['FA', 'SR']}]}, {'all': [{'all': [{'name': 'define_dataset_class', 'operator': 'str_equal_to', 'value': 'RELATIONSHIP'}]}, {'any': [{'name': 'define_dataset_name', 'operator': 'is_not_contained_by', 'value': ['RELREC', 'RELSPEC', 'RELSUB', 'SUPPQUAL']}, {'name': 'define_dataset_name', 'operator': 'starts_with', 'value': 'SUPP'}]}]}, {'all': [{'name': 'define_dataset_class', 'operator': 'str_equal_to', 'value': 'STUDY REFERENCE'}, {'name': 'define_dataset_name', 'operator': 'is_not_contained_by', 'value': ['OI']}]}]}",
CDISC.SDTMIG.CG0313,CG0313,CDISC,SDTMIG,3.2,Draft,Record,Record Data,Fully Executable,"{'Classes': {'Include': ['ALL']}, 'Domains': {'Include': ['ALL']}}",,,,{'all': []},
CDISC.SDTMIG.CG0314,CG0314,CDISC,SDTMIG,"3.4,3.2,3.3",Draft,Variable,Record Data,Fully Executable,"{'Classes': {'Include': ['ALL']}, 'Domains': {'Include': ['ALL']}}","SUPP--.QNAM presents in dataset, but value of SUPP--.QNAM ^= any variable name defined in the corresponding SDTM version.",,"Raise an error when SUPP--.QNAM presents in dataset, but value of SUPP--.QNAM ^= any variable name defined in the corresponding SDTM version.","{'all': [{'name': 'QNAM', 'operator': 'non_empty'}, {'context': 'RDOMAIN', 'name': 'QNAM', 'operator': 'exists', 'value': 'variable_name'}]}",
CDISC.SDTMIG.CG0320,CG0320,CDISC,SDTMIG,"3.4,3.2,3.3",Draft,Variable,Record Data,Fully Executable,"{'Classes': {'Include': ['FINDINGS']}, 'Domains': {'Exclude': ['BS', 'CP', 'CV', 'DA', 'DD', 'EG', 'FT', 'GF', 'IE', 'IS', 'LB', 'MB', 'MI', 'MK', 'MS', 'NV', 'OE', 'PC', 'PE', 'PP', 'QS', 'RE', 'RP', 'RS', 'SC', 'SS', 'TR', 'TU', 'UR', 'VS']}}",--TESTCD does not exist in Findings domain.,,Raise an error when variable --TESTCD is missing for custom finding domains,"{'all': [{'name': '--TESTCD', 'operator': 'not_exists'}]}",
CDISC.SDTMIG.CG0321,CG0321,CDISC,SDTMIG,"3.4,3.2,3.3",Draft,Domain,Domain Existence Check,Fully Executable,"{'Classes': {'Include': ['ALL']}, 'Domains': {'Include': ['ALL']}}",Custom domain is not based on one of the observation classes,,Trigger error when a custom domain is present and is not based on of the observation classes,"{'all': [{'name': 'dataset_name', 'operator': 'is_not_contained_by', 'value': ['Domain CT']}, {'name': None, 'operator': None}]}",
CDISC.SDTMIG.CG0322,CG0322,CDISC,SDTMIG,"3.4,3.2,3.3",Draft,Record,Record Data,Fully Executable,"{'Classes': {'Include': ['TRIAL DESIGN']}, 'Domains': {'Include': ['TE']}}",ELEMENT value refers to a specific ARM when ELEMENT is associated with more than 1 arm,,"When ELEMENT is associated with more than 1 arm, the ELEMENT value must not refer to a specific ARM","{'all': [{'name': 'ELEMENT', 'operator': 'contains', 'value': 'ARM'}]}",
CDISC.SDTMIG.CG0323,CG0323,CDISC,SDTMIG,"3.4,3.2,3.3",Draft,Record,Record Data,Fully Executable,"{'Classes': {'Include': ['TRIAL DESIGN']}, 'Domains': {'Include': ['TA', 'TE']}}",ELEMENT refers to a specific EPOCH when ELEMENT is associated with more than 1 EPOCH,,"When ELEMENT is associated with more than 1 EPOCH, ELEMENT should not refer to a specific EPOCH.","{'all': [{'name': '$ta_element', 'operator': 'is_not_unique_relationship', 'value': '$ta_epoch'}, {'name': 'ELEMENT', 'operator': 'contains', 'value': '$ta_epoch'}]}","{'domain': 'TA', 'id': '$ta_element', 'name': 'ELEMENT', 'operator': 'distinct'},{'domain': 'TA', 'id': '$ta_epoch', 'name': 'EPOCH', 'operator': 'distinct'}"
CDISC.SDTMIG.CG0324,CG0324,CDISC,SDTMIG,"3.4,3.2,3.3",Draft,Record,Record Data,Fully Executable,"{'Classes': {'Include': ['STUDY REFERENCE']}, 'Domains': {'Include': ['TE']}}",TEENRL refers to a specific ARM,,TEENRL should not reference a specific ARM.  This rule has only been partially executed to identify explicit references to ARM.,"{'all': [{'name': 'TEENRL', 'operator': 'contains', 'value': '$ta_arm'}]}","{'domain': 'TA', 'id': '$ta_arm', 'name': 'ARM', 'operator': 'distinct'}"
CDISC.SDTMIG.CG0325,CG0325,CDISC,SDTMIG,"3.4,3.2,3.3",Draft,Dataset,Record Data,Fully Executable,"{'Classes': {'Include': ['TRIAL DESIGN']}, 'Domains': {'Include': ['TE']}}","The combination of ELEMENT, TESTRL, TEENRL, and TEDUR is not unique for each ETCD","ETCD,ELEMENT,TESTRL,TEENRL,TEDUR","The combination of ELEMENT, TESTRL, TEENRL, and TEDUR must be unique for each ETCD.","{'any': [{'name': 'ETCD', 'operator': 'is_not_unique_set', 'value': ['ELEMENT', 'TESTRL', 'TEENRL', 'TEDUR']}]}",
CDISC.SDTMIG.CG0330,CG0330,CDISC,SDTMIG,"3.2,3.3",Draft,Record,Record Data,Fully Executable,"{'Classes': {'Include': ['ALL']}, 'Domains': {'Include': ['ALL']}}",,,,{'all': []},
CDISC.SDTMIG.CG0332,CG0332,CDISC,SDTMIG,"3.4,3.2,3.3",Draft,Domain,Domain Presence Check,Fully Executable,"{'Classes': {'Include': ['ALL']}, 'Domains': {'Exclude': ['RELREC', 'RELSUB', 'SUPP']}}",Two-Letter parent domain must be present when spilt datasets are present in the study.,,Verifying that split domains (i.e three/four-letter domain name) have a two-letter parent domain present in the study,"{'all': [{'name': 'dataset_name', 'operator': 'matches_regex', 'value': '^[A-Z][a-z0-9]{3,4}'}, {'name': 'dataset_name', 'operator': 'not_prefix_matches_regex', 'prefix': 2, 'value': '(ap|AP|fa|Fa)'}, {'name': 'dataset_name', 'operator': 'is_not_contained_by', 'value': '<Needs to be a dynamic list of two-letter domains for respective study>'}]}",
CDISC.SDTMIG.CG0333,CG0333,CDISC,SDTMIG,"3.4,3.2,3.3",Draft,Dataset,Record Data,Fully Executable,"{'Classes': {'Include': ['ALL']}, 'Domains': {'Include': ['ALL']}}",Parent domain referenced in Findings About dataset name is not present in the study,,Trigger error when parent domain referenced in Findings About dataset name is not present in the study,"{'all': [{'name': 'dataset_name', 'operator': 'starts_with', 'value': 'FA'}, {'name': 'dataset_name', 'operator': 'longer than', 'value': 2}, {'name': 'Characters in dataset name after ""FA""', 'operator': 'is_contained_by', 'value': ['List of domains']}]}",
CDISC.SDTMIG.CG0334,CG0334,CDISC,SDTMIG,"3.4,3.2,3.3",Draft,Dataset,Record Data,Fully Executable,"{'Classes': {'Include': ['ALL']}, 'Domains': {'Include': ['SUPP']}}",RDOMAIN does not match characters 5 and 6 of the dataset name,,Trigger error when RDOMAIN does not match characters 5 and 6 of the Supplementary dataset name,"{'all': [{'name': 'dataset_name', 'operator': 'starts_with', 'value': 'SUPP'}, {'name': 'dataset_name', 'operator': 'ends_with', 'suffix': 2, 'value': 'RDOMAIN'}]}",
CDISC.SDTMIG.CG0336,CG0336,CDISC,SDTMIG,"3.4,3.3,3.2",Draft,Record,Record Data,Fully Executable,"{'Classes': {'Include': ['ALL']}, 'Domains': {'Include': ['ALL']}}",--CAT is equal to DOMAIN.,--CAT,Raise an error when --CAT = DOMAIN.,"{'all': [{'name': '--CAT', 'operator': 'equal_to', 'value': '$domain_label'}]}","{'id': '$domain_label', 'operator': 'domain_label'}"
CDISC.SDTMIG.CG0347,CG0347,CDISC,SDTMIG,"3.4,3.2,3.3",Draft,Record,Record Data,Fully Executable,"{'Classes': {'Include': ['FINDINGS']}, 'Domains': {'Include': ['ALL']}}","--ORRES is equal to MULTIPLE when it is not a valid response in the context of the finding (e.g., Questionnaire CT)",,"Trigger error when --ORRES is equal to MULTIPLE when it is not a valid response in the context of the finding (e.g., Questionnaire CT)","{'all': [{'name': '--ORRES', 'operator': 'not_contained_by', 'value': ['Questionnaire CT']}, {'name': '--ORRES', 'operator': 'equals', 'value': 'MULTIPLE'}]}",
CDISC.SDTMIG.CG0349,CG0349,CDISC,SDTMIG,"3.4,3.2,3.3",Draft,Variable,Record Data,Fully Executable,"{'Classes': {'Include': ['FINDINGS', 'INTERVENTIONS', 'EVENTS']}, 'Domains': {'Include': ['ALL']}}",Prefixed variable within custom domain does not match the DOMAIN value,,Trigger error when prefixed variable within custom domain does not match the DOMAIN value,"{'all': [{'name': 'DOMAIN', 'operator': 'is_not_contained_by', 'value': ['CT.DOMAIN']}, {'name': 'Variable', 'operator': 'is_not_contained_by', 'value': ['STUDYID', 'DOMAIN', 'USUBJID', 'POOLID', 'SPDEVID', 'VISIT', 'VISITNUM', 'VISITDY', 'ELEMENT', 'TAETORD', 'EPOCH']}, {'name': 'Variable', 'operator': 'prefix_matches_regex', 'prefix': 2, 'value': 'DOMAIN'}]}",
CDISC.SDTMIG.CG0351,CG0351,CDISC,SDTMIG,"3.4,3.2,3.3",Draft,Value,Record Data,Fully Executable,"{'Classes': {'Include': ['ALL']}, 'Domains': {'Include': ['ALL']}}",Variable within SUPPQUAL is in Model List of Allowed Variables for Observation Class,,Trigger error when a variable in Model List of Allowed Variables for Observation Class is in SUPPQUAL,"{'all': [{'name': None, 'operator': None}, {'name': 'QNAM', 'operator': 'is_contained_by', 'value': ['Model List of Allowed Variables for Observation Class']}]}",
CDISC.SDTMIG.CG0359,CG0359,CDISC,SDTMIG,"3.4,3.2,3.3",Draft,Variable,Variable Metadata Check,Fully Executable,"{'Classes': {'Include': ['ALL']}, 'Domains': {'Include': ['ALL']}}","Variable label is not in title case (title case means to capitalize the first letter of every word except for articles, prepositions, and conjunctions)",,"Title case should be used for all labels, where the first letter of every word is capitalized except for articles, prepositions, and conjunctions","{'all': [{'name': 'variable_label', 'operator': 'not_matches_regex', 'value': '^\\s*[A-Z]\\S*\\s*((a|an|the|and|but|or|for|in|of|on|with|([A-Z]\\S*))\\s*)*$'}]}",
CDISC.SDTMIG.CG0368,CG0368,CDISC,SDTMIG,"3.4,3.2,3.3",Draft,Study,Domain Presence Check,Fully Executable,"{'Classes': {'Include': ['ALL']}, 'Domains': {'Include': ['ALL']}}",DM dataset is missing,,Trigger error when DM dataset is not present,"{'all': [{'name': 'DM', 'operator': 'not_exists'}]}",
CDISC.SDTMIG.CG0369,CG0369,CDISC,SDTMIG,"3.4,3.2,3.3",Draft,Record,Record Data,Fully Executable,"{'Classes': {'Include': ['SPECIAL PURPOSE']}, 'Domains': {'Include': ['CO', 'RELREC', 'SUPP--']}}",RDOMAIN does not represent a dataset present in the study,"RDOMAIN,USUBJID",When RDOMAIN is populated the referenced RDOMAIN must exist as a DOMAIN in the present study,"{'all': [{'name': 'RDOMAIN', 'operator': 'is_not_valid_reference', 'context': 'dataset_name'}]}",
CDISC.SDTMIG.CG0370,CG0370,CDISC,SDTMIG,"3.4,3.2,3.3",Draft,Record,Record Data,Fully Executable,"{'Classes': {'Include': ['SPECIAL PURPOSE']}, 'Domains': {'Include': ['CO', 'SUPP--', 'RELREC']}}",IDVAR does not represent a variable present in the dataset identified in RDOMAIN,"RDOMAIN,USUBJID,IDVAR","When IDVAR is populated, IDVAR must be a valid variable in the domain referenced by RDOMAIN.","{'all': [{'name': 'IDVAR', 'operator': 'is_valid_reference', 'context': 'RDOMAIN'}]}",
CDISC.SDTMIG.CG0373,CG0373,CDISC,SDTMIG,"3.4,3.2,3.3",Draft,Study,Record Data,Fully Executable,"{'Classes': {'Include': ['ALL']}, 'Domains': {'Include': ['SUPP']}}",SUPP--.RDOMAIN does not represent a dataset present in the study,,Trigger error when SUPP--.RDOMAIN does not represent a dataset present in the study,"{'all': [{'context': 'DOMAIN', 'name': 'RDOMAIN', 'operator': 'is_not_valid_reference'}]}",
CDISC.SDTMIG.CG0374,CG0374,CDISC,SDTMIG,"3.4,3.2,3.3",Draft,Study,Record Data,Fully Executable,"{'Classes': {'Include': ['ALL']}, 'Domains': {'Include': ['RELREC']}}",RELREC.RDOMAIN does not represent a dataset present in the study,,RELREC.RDOMAIN must represent a dataset that is present in the study. in the study,"{'all': [{'context': 'DOMAIN', 'name': 'RDOMAIN', 'operator': 'is_not_valid_reference'}]}",
CDISC.SDTMIG.CG0375,CG0375,CDISC,SDTMIG,"3.4,3.2,3.3",Draft,Record,Record Data,Fully Executable,"{'Classes': {'Include': ['TRIAL DESIGN']}, 'Domains': {'Include': ['TD']}}",TDANCVAR is not valid,,Trigger error when TDANCVAR is not a date variable name in ADSL,"{'all': [{'name': 'TDANCVAR', 'operator': 'is_not_contained_by', 'value': '[date variable name in ADSL]'}]}",
CDISC.SDTMIG.CG0376,CG0376,CDISC,SDTMIG,"3.4,3.2,3.3",Draft,Record,Record Data,Fully Executable,"{'Classes': {'Include': ['TRIAL DESIGN']}, 'Domains': {'Include': ['TD']}}",TDSTOFF is not equal to zero or a positive value in ISO 8601 Duration format,,TDSTOFF must be equal to 0 or a positive value in ISO 8601 Duration format,"{'all': [{'name': 'TDSTOFF', 'operator': 'not_equal_to', 'value': 0}, {'name': 'TDSTOFF', 'operator': 'not_matches_regex', 'value': '^P(([0-9]+Y)?([0-9]+M)?([0-9]+W)?([0-9]+D)?(T([0-9]+H)?([0-9]+M)?([0-9]+(\\.?[0-9]+)?S)?))?$'}]}",
CDISC.SDTMIG.CG0377,CG0377,CDISC,SDTMIG,"3.4,3.2,3.3",Draft,Record,Record Data,Fully Executable,"{'Classes': {'Include': ['EVENTS']}, 'Domains': {'Include': ['AE', 'MH', 'CE']}}",--LLT is not a valid MedDRA lowest level TERM,,Trigger error when --LLT  is not a valid MedDRA lowest level TERM,"{'all': [{'name': '--LLT', 'operator': 'is_contained_by', 'value': ['MedDRA lowest level TERM']}]}",
CDISC.SDTMIG.CG0378,CG0378,CDISC,SDTMIG,"3.4,3.2,3.3",Draft,Record,Record Data,Fully Executable,"{'Classes': {'Include': ['EVENTS']}, 'Domains': {'Include': ['AE', 'MH', 'CE']}}",--LLTCD  is not a valid MedDRA lowest level code,,Trigger error when --LLTCD  is not a valid MedDRA lowest level code,"{'all': [{'name': '--LLTCD', 'operator': 'is_contained_by', 'value': ['MedDRA lowest level code']}]}",
CDISC.SDTMIG.CG0379,CG0379,CDISC,SDTMIG,"3.4,3.2,3.3",Draft,Record,Record Data,Fully Executable,"{'Classes': {'Include': ['EVENTS']}, 'Domains': {'Include': ['AE']}}",--DECOD  is not a valid MedDRA preferred TERM,,Trigger error when --DECOD  is not a valid MedDRA preferred TERM,"{'all': [{'name': '--DECOD', 'operator': 'non_empty'}, {'name': '--DECOD', 'operator': 'is_contained_by', 'value': ['MedDRA preferred TERM']}]}",
CDISC.SDTMIG.CG0380,CG0380,CDISC,SDTMIG,"3.4,3.2,3.3",Draft,Record,Record Data,Fully Executable,"{'Classes': {'Include': ['EVENTS']}, 'Domains': {'Include': ['AE', 'MH', 'CE']}}",--PTCD  is not a valid MedDRA preferred term code,,Trigger error when --PTCD  is not a valid MedDRA preferred term code,"{'all': [{'name': '--PTCD', 'operator': 'is_contained_by', 'value': ['MedDRA preferred term code']}]}",
CDISC.SDTMIG.CG0381,CG0381,CDISC,SDTMIG,"3.4,3.2,3.3",Draft,Record,Record Data,Fully Executable,"{'Classes': {'Include': ['EVENTS']}, 'Domains': {'Include': ['AE', 'MH', 'CE']}}",--HLT  is not a valid MedDRA high level TERM,,Trigger error when --HLT  is not a valid MedDRA high level TERM,"{'all': [{'name': '--HLT', 'operator': 'is_contained_by', 'value': ['MedDRA high level TERM']}]}",
CDISC.SDTMIG.CG0382,CG0382,CDISC,SDTMIG,"3.4,3.2,3.3",Draft,Record,Record Data,Fully Executable,"{'Classes': {'Include': ['EVENTS']}, 'Domains': {'Include': ['AE', 'MH', 'CE']}}",--HLTCD  is not a valid MedDRA high level TERM code,,Trigger error when --HLTCD  is not a valid MedDRA high level TERM code,"{'all': [{'name': '--HLTCD', 'operator': 'is_contained_by', 'value': ['MedDRA high level TERM code']}]}",
CDISC.SDTMIG.CG0383,CG0383,CDISC,SDTMIG,"3.4,3.2,3.3",Draft,Record,Record Data,Fully Executable,"{'Classes': {'Include': ['EVENTS']}, 'Domains': {'Include': ['AE', 'MH', 'CE']}}",--HLGT  is not a valid MedDRA high level group TERM,,Trigger error when --HLGT  is not a valid MedDRA high level group TERM,"{'all': [{'name': '--HLGT', 'operator': 'is_contained_by', 'value': ['MedDRA high level group TERM']}]}",
CDISC.SDTMIG.CG0384,CG0384,CDISC,SDTMIG,"3.4,3.2,3.3",Draft,Record,Record Data,Fully Executable,"{'Classes': {'Include': ['EVENTS']}, 'Domains': {'Include': ['AE', 'MH', 'CE']}}",--HLGTCD  is not a valid MedDRA high level group TERM code,,Trigger error when --HLGTCD  is not a valid MedDRA high level group TERM code,"{'all': [{'name': '--HLGTCD', 'operator': 'is_contained_by', 'value': ['MedDRA high level group TERM code']}]}",
CDISC.SDTMIG.CG0385,CG0385,CDISC,SDTMIG,"3.4,3.2,3.3",Draft,Record,Record Data,Fully Executable,"{'Classes': {'Include': ['EVENTS']}, 'Domains': {'Include': ['AE', 'MH', 'CE']}}",--BODSYS  is not a valid MedDRA system organ class,,Trigger error when --BODSYS  is not a valid MedDRA system organ class,"{'all': [{'name': '--BODSYS', 'operator': 'is_contained_by', 'value': ['MedDRA system organ class']}]}",
CDISC.SDTMIG.CG0386,CG0386,CDISC,SDTMIG,"3.4,3.2,3.3",Draft,Record,Record Data,Fully Executable,"{'Classes': {'Include': ['EVENTS']}, 'Domains': {'Include': ['AE', 'MH', 'CE']}}",--BDSYCD is not a valid MedDRA system organ class code,,Trigger error when --BDSYCD is not a valid MedDRA system organ class code,"{'all': [{'name': '--BDSYCD', 'operator': 'is_contained_by', 'value': ['MedDRA system organ class code']}]}",
CDISC.SDTMIG.CG0398,CG0398,CDISC,SDTMIG,3.2,Draft,Record,Record Data,Fully Executable,"{'Classes': {'Include': ['EVENTS']}, 'Domains': {'Include': ['DS']}}",,,,{'all': []},
CDISC.SDTMIG.CG0400,CG0400,CDISC,SDTMIG,"3.4,3.2,3.3",Draft,Record,Record Data,Fully Executable,"{'Classes': {'Include': ['FINDINGS']}, 'Domains': {'Include': ['ALL']}}",--LOINC is not a valid code in the version of the LOINC dictionary specified in define.xml,,Trigger error when --LOINC is not a valid code in the version of the LOINC dictionary specified in define.xml,"{'all': [{'name': '--LOINC', 'operator': 'is_not_contained_by', 'value': ['LOINC codes contained in the version of the LOINC dictionary specified in define.xml']}]}",
CDISC.SDTMIG.CG0407,CG0407,CDISC,SDTMIG,"3.4,3.2,3.3",Draft,Study,Domain Existence Check,Fully Executable,"{'Classes': {'Include': ['INTERVENTIONS']}, 'Domains': {'Include': ['EX']}}",EX is not present in study when study includes protocol-specified study treatment,,Trigger error when study includes protocol-specified study treatment and EX is not present,"{'all': [{'name': None, 'operator': None}, {'name': 'EX', 'operator': 'not_exists'}]}",
CDISC.SDTMIG.CG0408,CG0408,CDISC,SDTMIG,"3.4,3.2,3.3",Draft,Dataset,Dataset Metadata Check,Fully Executable,"{'Classes': {'Include': ['ALL']}, 'Domains': {'Include': ['ALL']}}",Dataset has no record,,Trigger error when a dataset has no records,"{'all': [{'name': 'dataset_size', 'operator': 'equal_to', 'value': 0}]}",
CDISC.SDTMIG.CG0412,CG0412,CDISC,SDTMIG,3.2,Draft,Record,Record Data,Fully Executable,"{'Classes': {'Include': ['EVENTS']}, 'Domains': {'Include': ['DS']}}",,,,{'all': []},
CDISC.SDTMIG.CG0413,CG0413,CDISC,SDTMIG,"3.4,3.2,3.3",Draft,Dataset,Dataset Metadata Check,Fully Executable,"{'Classes': {'Include': ['ALL']}, 'Domains': {'Include': ['ALL']}}",Dataset name does not begin with DOMAIN value,,The dataset name must begin with the DOMAIN value.,"{'all': [{'name': 'dataset_name', 'operator': 'prefix_not_equal_to', 'prefix': 2, 'value': 'DOMAIN'}]}",
CDISC.SDTMIG.CG0415,CG0415,CDISC,SDTMIG,"3.4,3.2,3.3",Draft,Value,Record Data,Fully Executable,"{'Classes': {'Include': ['TRIAL DESIGN']}, 'Domains': {'Include': ['TA']}}",Length of ARMCD must be less than or equal to 20 characters,,Verify that ARMCD in TA domain is valid planned arm code,"{'all': [{'name': 'ARMCD', 'operator': 'longer_than_or_equal_to', 'value': 21}]}",
CDISC.SDTMIG.CG0418,CG0418,CDISC,SDTMIG,"3.2,3.3,3.4",Draft,Record,Record Data,Fully Executable,"{'Classes': {'Include': ['ALL']}, 'Domains': {'Include': ['ALL']}}",,,,{'all': []},
CDISC.SDTMIG.CG0425,CG0425,CDISC,SDTMIG,"3.4,3.2,3.3",Draft,Record,Record Data,Fully Executable,"{'Classes': {'Include': ['FINDINGS']}, 'Domains': {'Include': ['ALL']}}",--STRESU is null when --STRESC ^= null and units are applicable for the result,,Trigger error if --STRESU is null when --STRESC ^= null and units are applicable for the result,"{'all': [{'name': '--STRESC', 'operator': 'not_empty'}, {'name': None, 'operator': None}, {'name': '--STRESU', 'operator': 'empty'}]}",
CDISC.SDTMIG.CG0431,CG0431,CDISC,SDTMIG,"3.4,3.2,3.3",Draft,Value,Record Data,Fully Executable,"{'Classes': {'Include': ['ALL']}, 'Domains': {'Include': ['ALL']}}","Variable is empty, where variable core status is expected and data is collected.",,"Raise an error when variable Core Status = Expected and data is collected, but variable is not present","{'all': [{'name': 'define_variable_role', 'operator': 'equal_to', 'value': 'Expected'}, {'name': 'variable_name', 'operator': 'empty'}]}",
CDISC.SDTMIG.CG0432,CG0432,CDISC,SDTMIG,"3.2,3.3",Draft,Record,Record Data,Fully Executable,"{'Classes': {'Include': ['SPECIAL PURPOSE']}, 'Domains': {'Include': ['DM']}}",,,,{'all': []},
CDISC.SDTMIG.CG0433_not IG V3.4 rule,CG0433,CDISC,SDTMIG,"3.4,3.2,3.3",Draft,Record,Record Data,Fully Executable,"{'Classes': {'Include': ['SPECIAL PURPOSE']}, 'Domains': {'Include': ['DM']}}","Missing value for AGE, when AGEU is provided","AGE,AGEU","Raise an error when AGE is empty, but AGEU is not empty.","{'all': [{'name': 'AGEU', 'operator': 'non_empty'}, {'name': 'AGE', 'operator': 'empty'}]}",
CDISC.SDTMIG.CG0436,CG0436,CDISC,SDTMIG,"3.4,3.2,3.3",Draft,Record,Record Data,Fully Executable,"{'Classes': {'Include': ['EVENTS']}, 'Domains': {'Include': ['AE', 'MH', 'CE']}}",--SOC must equal MedDRA primary system organ class,,Verify that --SOC matches MedDRA primary system organ class,"{'all': [{'domain': 'is_not_contained_by', 'operator': 'get_dataset', 'value': {'comparator': '$MedDRA_SOC', 'target': '--SOC'}}]}","{'domain': 'MedDRA', 'id': '$MedDRA_SOC', 'name': 'SOC', 'operator': 'distinct'}"
CDISC.SDTMIG.CG0437,CG0437,CDISC,SDTMIG,"3.2,3.3,3.4",Draft,Record,Record Data,Fully Executable,"{'Classes': {'Include': ['EVENTS']}, 'Domains': {'Include': ['AE', 'MH', 'CE']}}",,,,{'all': []},
CDISC.SDTMIG.CG0438,CG0438,CDISC,SDTMIG,"3.2,3.3",Draft,Record,Record Data,Fully Executable,"{'Classes': {'Include': ['TRIAL DESIGN']}, 'Domains': {'Include': ['TS']}}",,,,{'all': []},
CDISC.SDTMIG.CG0439,CG0439,CDISC,SDTMIG,"3.2,3.3",Draft,Record,Record Data,Fully Executable,"{'Classes': {'Include': ['TRIAL DESIGN']}, 'Domains': {'Include': ['TS']}}",,,,{'all': []},
CDISC.SDTMIG.CG0440,CG0440,CDISC,SDTMIG,"3.2,3.3",Draft,Record,Record Data,Fully Executable,"{'Classes': {'Include': ['TRIAL DESIGN']}, 'Domains': {'Include': ['TS']}}",,,,{'all': []},
CDISC.SDTMIG.CG0441,CG0441,CDISC,SDTMIG,"3.2,3.3",Draft,Record,Record Data,Fully Executable,"{'Classes': {'Include': ['TRIAL DESIGN']}, 'Domains': {'Include': ['TS']}}",,,,{'all': []},
CDISC.SDTMIG.CG0442,CG0442,CDISC,SDTMIG,"3.2,3.3",Draft,Record,Record Data,Fully Executable,"{'Classes': {'Include': ['TRIAL DESIGN']}, 'Domains': {'Include': ['TS']}}",,,,{'all': []},
CDISC.SDTMIG.CG0443,CG0443,CDISC,SDTMIG,"3.2,3.3",Draft,Record,Record Data,Fully Executable,"{'Classes': {'Include': ['TRIAL DESIGN']}, 'Domains': {'Include': ['TS']}}",,,,{'all': []},
CDISC.SDTMIG.CG0444,CG0444,CDISC,SDTMIG,"3.2,3.3",Draft,Record,Record Data,Fully Executable,"{'Classes': {'Include': ['TRIAL DESIGN']}, 'Domains': {'Include': ['TS']}}",,,,{'all': []},
CDISC.SDTMIG.CG0445,CG0445,CDISC,SDTMIG,"3.2,3.3",Draft,Record,Record Data,Fully Executable,"{'Classes': {'Include': ['TRIAL DESIGN']}, 'Domains': {'Include': ['TS']}}",,,,{'all': []},
CDISC.SDTMIG.CG0446,CG0446,CDISC,SDTMIG,"3.2,3.3",Draft,Record,Record Data,Fully Executable,"{'Classes': {'Include': ['TRIAL DESIGN']}, 'Domains': {'Include': ['TS']}}",,,,{'all': []},
CDISC.SDTMIG.CG0448,CG0448,CDISC,SDTMIG,"3.2,3.3",Draft,Record,Record Data,Fully Executable,"{'Classes': {'Include': ['TRIAL DESIGN']}, 'Domains': {'Include': ['TS']}}",,,,{'all': []},
CDISC.SDTMIG.CG0449,CG0449,CDISC,SDTMIG,"3.2,3.3",Draft,Record,Record Data,Fully Executable,"{'Classes': {'Include': ['TRIAL DESIGN']}, 'Domains': {'Include': ['TS']}}",,,,{'all': []},
CDISC.SDTMIG.CG0450,CG0450,CDISC,SDTMIG,"3.2,3.3",Draft,Record,Record Data,Fully Executable,"{'Classes': {'Include': ['TRIAL DESIGN']}, 'Domains': {'Include': ['TS']}}",,,,{'all': []},
CDISC.SDTMIG.CG0451,CG0451,CDISC,SDTMIG,"3.2,3.3",Draft,Record,Record Data,Fully Executable,"{'Classes': {'Include': ['TRIAL DESIGN']}, 'Domains': {'Include': ['TS']}}",,,,{'all': []},
CDISC.SDTMIG.CG0453,CG0453,CDISC,SDTMIG,"3.2,3.3",Draft,Record,Record Data,Fully Executable,"{'Classes': {'Include': ['TRIAL DESIGN']}, 'Domains': {'Include': ['TS']}}",,,,{'all': []},
CDISC.SDTMIG.CG0454,CG0454,CDISC,SDTMIG,"3.2,3.3",Draft,Record,Record Data,Fully Executable,"{'Classes': {'Include': ['TRIAL DESIGN']}, 'Domains': {'Include': ['TS']}}",,,,{'all': []},
CDISC.SDTMIG.CG0455,CG0455,CDISC,SDTMIG,"3.2,3.3",Draft,Record,Record Data,Fully Executable,"{'Classes': {'Include': ['TRIAL DESIGN']}, 'Domains': {'Include': ['TS']}}",,,,{'all': []},
CDISC.SDTMIG.CG0456,CG0456,CDISC,SDTMIG,"3.2,3.3",Draft,Record,Record Data,Fully Executable,"{'Classes': {'Include': ['TRIAL DESIGN']}, 'Domains': {'Include': ['TS']}}",,,,{'all': []},
CDISC.SDTMIG.CG0457,CG0457,CDISC,SDTMIG,"3.2,3.3",Draft,Record,Record Data,Fully Executable,"{'Classes': {'Include': ['TRIAL DESIGN']}, 'Domains': {'Include': ['TS']}}",,,,{'all': []},
CDISC.SDTMIG.CG0458,CG0458,CDISC,SDTMIG,"3.2,3.3",Draft,Record,Record Data,Fully Executable,"{'Classes': {'Include': ['TRIAL DESIGN']}, 'Domains': {'Include': ['TS']}}",,,,{'all': []},
CDISC.SDTMIG.CG0459,CG0459,CDISC,SDTMIG,"3.2,3.3",Draft,Record,Record Data,Fully Executable,"{'Classes': {'Include': ['TRIAL DESIGN']}, 'Domains': {'Include': ['TS']}}",,,,{'all': []},
CDISC.SDTMIG.CG0460,CG0460,CDISC,SDTMIG,"3.4,3.2,3.3",Draft,Record,Record Data,Fully Executable,"{'Classes': {'Include': ['EVENTS']}, 'Domains': {'Include': ['AE', 'MH', 'CE']}}",--HLT is not on the path to MedDRA primary system organ class,,Trigger error when --HLT is not on the path to MedDRA primary system organ class,"{'all': [{'name': None, 'operator': None}, {'name': None, 'operator': None}]}",
CDISC.SDTMIG.CG0461,CG0461,CDISC,SDTMIG,"3.4,3.2,3.3",Draft,Record,Record Data,Fully Executable,"{'Classes': {'Include': ['EVENTS']}, 'Domains': {'Include': ['AE', 'CE', 'MH']}}",--HLGT is not on the path to MedDRA primary system organ class,,Trigger error when --HLGT is not on the path to MedDRA primary system organ class,"{'all': [{'name': None, 'operator': None}, {'name': None, 'operator': None}]}",
CDISC.SDTMIG.CG0463,CG0463,CDISC,SDTMIG,"3.4,3.2,3.3",Draft,Dataset,Record Data,Fully Executable,"{'Classes': {'Include': ['INTERVENTIONS']}, 'Domains': {'Include': ['ALL']}}",--TRT is not present in custom interventions dataset,,Trigger error when --TRT is not present in custom interventions dataset,"{'all': [{'name': None, 'operator': 'is_not_contained_by', 'prefix': 2, 'value': None}, {'name': '--TRT', 'operator': 'exists'}]}",
CDISC.SDTMIG.CG0464,CG0464,CDISC,SDTMIG,"3.4,3.2,3.3",Draft,Dataset,Record Data,Fully Executable,"{'Classes': {'Include': ['EVENTS']}, 'Domains': {'Include': ['ALL']}}",--TERM is not present in custom events dataset,,Trigger error when --TERM is not present in custom events dataset,"{'all': [{'name': None, 'operator': 'is_not_contained_by', 'prefix': 2, 'value': None}, {'name': '--TERM', 'operator': 'exists'}]}",
CDISC.SDTMIG.CG0466,CG0466,CDISC,SDTMIG,"3.4,3.2,3.3",Draft,Record,Record Data,Fully Executable,"{'Classes': {'Include': ['FINDINGS']}, 'Domains': {'Include': ['ALL']}}",--LLOQ is not expressed using the units in --STRESU,,Trigger error when --LLOQ is not expressed using the units in --STRESU,"{'all': [{'name': '--LLOQ', 'operator': 'exists'}, {'name': None, 'operator': None}]}",
CDISC.SDTMIG.CG0501,CG0501,CDISC,SDTMIG,"3.4,3.3",Draft,Dataset,Domain Presence Check,Fully Executable,"{'Classes': {'Include': ['ALL']}, 'Domains': {'Include': ['ALL']}}",TM dataset is missing when MIDS variable is present in one of the dataset.,,Raise an error when variable MIDS is present in any of the dataset and TM dataset is missing.,"{'all': [{'name': '$MIDS_EXISTS', 'operator': 'equal_to', 'value': True}, {'name': 'TM', 'operator': 'not_exists'}]}","{'id': '$MIDS_EXISTS', 'name': 'MIDS', 'operator': 'variable_exists'}"
CDISC.SDTMIG.CG0502,CG0502,CDISC,SDTMIG,"3.4,3.3",Draft,Dataset,Domain Presence Check,Fully Executable,"{'Classes': {'Include': ['ALL']}, 'Domains': {'Include': ['ALL']}}",TM dataset is missing when RELMIDS variable is present in any of the dataset.,,Raise an error when variable RELMIDS is present in any of the dataset and TM dataset is missing in a study.,"{'all': [{'name': '$RELMIDS_EXISTS', 'operator': 'equal_to', 'value': True}, {'name': 'TM', 'operator': 'not_exists'}]}","{'id': '$RELMIDS_EXISTS', 'name': 'RELMIDS', 'operator': 'variable_exists'}"
CDISC.SDTMIG.CG0523,CG0523,CDISC,SDTMIG,"3.4,3.3",Draft,Record,Record Data,Fully Executable,"{'Classes': {'Include': ['SPECIAL PURPOSE']}, 'Domains': {'Include': ['DM']}}",ARMCD is populated for a subject who was not assigned to treatment,,Trigger error when ARMCD is populated for a subject who was not assigned to treatment,"{'all': [{'name': None, 'operator': None}, {'name': 'ARMCD', 'operator': 'non_empty'}]}",
CDISC.SDTMIG.CG0524,CG0524,CDISC,SDTMIG,"3.4,3.3",Draft,Record,Record Data,Fully Executable,"{'Classes': {'Include': ['SPECIAL PURPOSE']}, 'Domains': {'Include': ['DM']}}",ACTARMCD is populated for a subject who was not assigned to treatment,,Trigger error when ACTARMCD is populated for a subject who was not assigned to treatment,"{'all': [{'name': None, 'operator': None}, {'name': 'ACTARMCD', 'operator': 'non_empty'}]}",
CDISC.SDTMIG.CG0525,CG0525,CDISC,SDTMIG,"3.4,3.3",Draft,Record,Record Data,Fully Executable,"{'Classes': {'Include': ['SPECIAL PURPOSE']}, 'Domains': {'Include': ['DM']}}",???,,"Trigger error when Sponsor collects Other, specify and chooses to map the value to SUPPDM, and NOT - RACE = 'OTHER' or RACE = 'MULTIPLE'","{'all': [{'name': None, 'operator': None}, {'name': 'RACE', 'operator': 'not_equal_to', 'value': 'UNKNOWN'}]}",
CDISC.SDTMIG.CG0526,CG0526,CDISC,SDTMIG,"3.4,3.3",Draft,Record,Record Data,Fully Executable,"{'Classes': {'Include': ['SPECIAL PURPOSE']}, 'Domains': {'Include': ['DM']}}","RACE is not equal to ""UNKNOWN"" when subject did not specify race",,"Trigger error when subject does not specify race and RACE is not equal to ""UNKNOWN""","{'all': [{'name': None, 'operator': None}, {'name': 'RACE', 'operator': 'not_equal_to', 'value': 'UNKNOWN'}]}",
CDISC.SDTMIG.CG0527,CG0527,CDISC,SDTMIG,"3.4,3.3",Draft,Record,Record Data,Fully Executable,"{'Classes': {'Include': ['SPECIAL PURPOSE']}, 'Domains': {'Include': ['DM']}}","RACE does not equal ""MULTIPLE"" when multiple races collected and primary race not specified",,"Trigger error when RACE does not equal ""MULTIPLE"" when multiple races collected and primary race not specified","{'all': [{'name': None, 'operator': None}, {'name': 'RACE', 'operator': 'not_equal_to', 'value': 'MULTIPLE'}]}",
CDISC.SDTMIG.CG0531,CG0531,CDISC,SDTMIG,"3.3,3.4",Draft,Record,Record Data,Fully Executable,"{'Classes': {'Include': ['SPECIAL PURPOSE']}, 'Domains': {'Include': ['SUPPDM']}}",,,,{'all': []},
CDISC.SDTMIG.CG0532,CG0532,CDISC,SDTMIG,"3.3,3.4",Draft,Record,Record Data,Fully Executable,"{'Classes': {'Include': ['SPECIAL PURPOSE']}, 'Domains': {'Include': ['DM']}}",,,,{'all': []},
CDISC.SDTMIG.CG0534,CG0534,CDISC,SDTMIG,"3.3,3.4",Draft,Record,Record Data,Fully Executable,"{'Classes': {'Include': ['SPECIAL PURPOSE']}, 'Domains': {'Include': ['DM']}}",,,,{'all': []},
CDISC.SDTMIG.CG0537,CG0537,CDISC,SDTMIG,"3.4,3.3",Draft,Record,Record Data,Fully Executable,"{'Classes': {'Include': ['EVENTS']}, 'Domains': {'Include': ['DS']}}",There is more than one record per subject per EPOCH,"DSCAT,EPCOCH",Trigger error when there is more than one record per subject per EPOCH,"{'all': [{'name': 'DSCAT', 'operator': 'equal_to', 'value': 'DISPOSITION EVENT', 'value_is_literal': True}, {'name': 'DSSCAT', 'operator': 'not_exists'}, {'name': 'DSCAT', 'operator': 'is_not_unique_set', 'value': 'EPOCH'}]}",
CDISC.SDTMIG.CG0540,CG0540,CDISC,SDTMIG,"3.4,3.3",Draft,Record,Record Data,Fully Executable,"{'Classes': {'Include': ['SPECIAL PURPOSE']}, 'Domains': {'Include': ['DM']}}",There are no DS records for subject who was assigned treatment,USUBJID,"When ACTARMCD is populated, disposition data for subject must be present","{'all': [{'name': 'ACTARMCD', 'operator': 'non_empty'}, {'name': 'USUBJID', 'operator': 'is_not_contained_by', 'value': '$ds_usubjid'}]}","{'operator': 'distinct', 'domain': 'DS', 'name': 'USUBJID', 'id': '$ds_usubjid'}"
CDISC.SDTMIG.CG0546,CG0546,CDISC,SDTMIG,"3.4,3.3",Draft,Dataset,Record Data,Fully Executable,"{'Classes': {'Include': ['SPECIAL PURPOSE']}, 'Domains': {'Include': ['SM']}}",MIDS is not suffixed with a sequence number in consistent chronological order,,Trigger error when MIDSTYPE=TM.MIDSTYPE and TM.TMRPT=Y and MIDS is not suffixed with a sequence number in consistent chronological order,"{'all': [{'name': 'TMRPT', 'operator': 'equal_to', 'value': 'Y'}, {'name': 'MIDS', 'operator': None}]}",
CDISC.SDTMIG.CG0548,CG0548,CDISC,SDTMIG,"3.4,3.3",Draft,Record,Record Data,Fully Executable,"{'Classes': {'Include': ['FINDINGS']}, 'Domains': {'Include': ['ALL']}}",--ORREF is not in the same units as --ORRES,,Trigger error when --ORREF is not in the same units as --ORRES,"{'all': [{'name': '--ORREF', 'operator': None}]}",
CDISC.SDTMIG.CG0550,CG0550,CDISC,SDTMIG,"3.4,3.3",Draft,Record,Record Data,Fully Executable,"{'Classes': {'Include': ['FINDINGS']}, 'Domains': {'Include': ['ALL']}}",--STREFN is null when --STREFC is populated.,,"When --STREFC is populated, --STREFN should also be populated.","{'all': [{'name': '--STREFC', 'operator': 'non_empty'}, {'name': '--STREFN', 'operator': 'empty'}]}",
CDISC.SDTMIG.CG0551,CG0551,CDISC,SDTMIG,"3.4,3.3",Draft,Record,Record Data,Fully Executable,"{'Classes': {'Include': ['FINDINGS']}, 'Domains': {'Include': ['ALL']}}",--STREFN is not in the same units as --STRESN,,Trigger error when --STREFN is not in the same units as --STRESN,"{'all': [{'name': '--STREFN', 'operator': None}]}",
CDISC.SDTMIG.CG0555,CG0555,CDISC,SDTMIG,"3.4,3.3",Draft,Record,Record Data,Fully Executable,"{'Classes': {'Include': ['FINDINGS']}, 'Domains': {'Include': ['PP']}}",Parameter is non-normalized and terminology for PPORRESU is not for a non-normalized parameter,,Trigger error when parameter is non-normalized and terminology for PPORRESU is not for a non-normalized parameter,"{'all': [{'name': 'PPTESTCD', 'operator': 'does_not_contain_case_insensitive', 'value': 'norm'}, {'name': 'PPORRESU', 'operator': 'does_not_use_valid_codelist_terms', 'value': 'PKUNIT'}]}",
CDISC.SDTMIG.CG0556,CG0556,CDISC,SDTMIG,"3.4,3.3",Draft,Record,Record Data,Fully Executable,"{'Classes': {'Include': ['FINDINGS']}, 'Domains': {'Include': ['PP']}}",Parameter is normalized by dose amount and terminology for PPORRESU is not for a parameter normalized by dose amount,,Trigger error when parameter is normalized by dose amount and terminology for PPORRESU is not for a parameter normalized by dose amount,"{'all': [{'name': 'PPTESTCD', 'operator': 'contains_case_insensitive', 'value': 'norm by dose'}, {'name': 'PPORRESU', 'operator': 'does_not_use_valid_codelist_terms', 'value': 'PKUDMG'}, {'name': 'PPORRESU', 'operator': 'does_not_use_valid_codelist_terms', 'value': 'PKUDUG'}]}",
CDISC.SDTMIG.CG0557,CG0557,CDISC,SDTMIG,"3.4,3.3",Draft,Record,Record Data,Fully Executable,"{'Classes': {'Include': ['FINDINGS']}, 'Domains': {'Include': ['PP']}}",Parameter is normalized by weight and terminology for PPORRESU is not for a parameter normalized by weight,,Trigger error when parameter is normalized by weight and terminology for PPORRESU is not for a parameter normalized by weight,"{'all': [{'name': 'PPTESTCD', 'operator': 'contains_case_insensitive', 'value': 'norm by wt'}, {'name': 'PPORRESU', 'operator': 'does_not_use_valid_codelist_terms', 'value': 'PKUWG'}, {'name': 'PPORRESU', 'operator': 'does_not_use_valid_codelist_terms', 'value': 'PKUWKG'}]}",
CDISC.SDTMIG.CG0558,CG0558,CDISC,SDTMIG,"3.4,3.3",Draft,Record,Record Data,Fully Executable,"{'Classes': {'Include': ['FINDINGS']}, 'Domains': {'Include': ['PP']}}",Parameter is non-normalized and terminology of PPSTRESU is not for a non-normalized parameter,,Trigger error when parameter is non-normalized and terminology of PPSTRESU is not for a non-normalized parameter,"{'all': [{'name': 'PPTESTCD', 'operator': 'does_not_contain_case_insensitive', 'value': 'norm'}, {'name': 'PPSTRESU', 'operator': 'does_not_use_valid_codelist_terms', 'value': 'PKUNIT'}]}",
CDISC.SDTMIG.CG0559,CG0559,CDISC,SDTMIG,"3.4,3.3",Draft,Record,Record Data,Fully Executable,"{'Classes': {'Include': ['FINDINGS']}, 'Domains': {'Include': ['PP']}}",Parameter is normalized by dose amount and terminology of PPSTRESU is not a parameter normalized by dose amount,,Trigger error when parameter is normalized by dose amount and terminology of PPSTRESU is not a parameter normalized by dose amount,"{'all': [{'name': 'PPTESTCD', 'operator': 'contains_case_insensitive', 'value': 'norm by dose'}, {'name': 'PPSTRESU', 'operator': 'does_not_use_valid_codelist_terms', 'value': 'PKUDMG'}, {'name': 'PPSTRESU', 'operator': 'does_not_use_valid_codelist_terms', 'value': 'PKUDUG'}]}",
CDISC.SDTMIG.CG0560,CG0560,CDISC,SDTMIG,"3.4,3.3",Draft,Record,Record Data,Fully Executable,"{'Classes': {'Include': ['FINDINGS']}, 'Domains': {'Include': ['PP']}}",Parameter is normalized by weight and terminology for PPSTRESU is not for a parameter not normalized by weight,,Trigger error when parameter is normalized by weight and terminology for PPSTRESU is not for a parameter not normalized by weight,"{'all': [{'name': 'PPTESTCD', 'operator': 'contains_case_insensitive', 'value': 'norm by wt'}, {'name': 'PPSTRESU', 'operator': 'does_not_use_valid_codelist_terms', 'value': 'PKUWG'}, {'name': 'PPSTRESU', 'operator': 'does_not_use_valid_codelist_terms', 'value': 'PKUWKG'}]}",
CDISC.SDTMIG.CG0562,CG0562,CDISC,SDTMIG,"3.4,3.3",Draft,Record,Record Data,Fully Executable,"{'Classes': {'Include': ['FINDINGS']}, 'Domains': {'Include': ['ALL']}}",--REPNUM is null or is not unique per subject per test per timing variables.,,"Raise an error when REPNUM is in the dataset and there are multiple records for a subject for a test within the timeframe identified by the timing variables on the record, and --REPNUM is null or not unique per subject per test per timing variables.","{'all': [{'name': '--REPNUM', 'operator': 'exists'}, {'name': '--REPNUM', 'operator': 'is_not_unique_set', 'value': ['USUBJID', '--TESTCD', 'VISITNUM', '--VISIT', 'VISITDY', 'TAETORD', 'EPOCH', '--DTC', '--STDTC', '--ENDTC', '--DY', '--STDY', '--ENDY', '--XDY', '--XSTDY', '--XENDY', '--CHDY', '--CHSTDY', '--CHENDY', '--DUR', '--TPT', '--TPTNUM', '--ELTM', '--TPTREF', '--RFTDTC', '--STRF', '--ENRF', '--EVLINT', '--EVINTX', '--STRTPT', '--STTPT', '--ENRTPT', '--ENTPT', 'MIDS', 'RELMIDS', 'MIDSDTC', '--STINT', '--ENINT', '--PTFL', '--PDUR']}]}",
CDISC.SDTMIG.CG0563,CG0563,CDISC,SDTMIG,"3.4,3.3",Draft,Record,Record Data,Fully Executable,"{'Classes': {'Include': ['FINDINGS']}, 'Domains': {'Include': ['RS']}}","Record is derived in a data collection tool and RSDRVFL is not equal to ""Y""",,"Raise an error when record is derived in a data collection tool and RSDRVFL is not equal to ""Y""","{'all': [{'name': None, 'operator': None}, {'name': 'RSDRVFL', 'operator': 'not_equal_to', 'value': 'Y'}]}",
CDISC.SDTMIG.CG0568,CG0568,CDISC,SDTMIG,3.3,Draft,Record,Record Data,Fully Executable,"{'Classes': {'Include': ['INTERVENTIONS']}, 'Domains': {'Include': ['EX']}}",,,,{'all': []},
CDISC.SDTMIG.CG0571,CG0571,CDISC,SDTMIG,"3.2,3.3",Draft,Record,Record Data,Fully Executable,"{'Classes': {'Include': ['ALL']}, 'Domains': {'Include': ['ALL']}}",,,,{'all': []},
CDISC.SDTMIG.CG0572,CG0572,CDISC,SDTMIG,"3.2,3.3",Draft,Record,Record Data,Fully Executable,"{'Classes': {'Include': ['ALL']}, 'Domains': {'Include': ['ALL']}}",,,,{'all': []},
CDISC.SDTMIG.CG0573,CG0573,CDISC,SDTMIG,"3.2,3.3",Draft,Record,Record Data,Fully Executable,"{'Classes': {'Include': ['ALL']}, 'Domains': {'Include': ['ALL']}}",,,,{'all': []},
CDISC.SDTMIG.CG0601,CG0601,CDISC,SDTMIG,3.4,Draft,Record,Record Data,Fully Executable,"{'Classes': {'Include': ['FINDINGS ABOUT']}, 'Domains': {'Include': ['ALL']}}",,,"Verify that for finding collected in a \""Other, specify\"" CRF field a related parent record exist","{'all': [{'name': '--DECOD', 'operator': 'empty'}, {'name': None, 'operator': None}, {'name': None, 'operator': None}]}",
CDISC.SDTMIG.CG0602,CG0602,CDISC,SDTMIG,3.4,Draft,Record,Record Data,Fully Executable,"{'Classes': {'Include': ['FINDINGS ABOUT']}, 'Domains': {'Include': ['F', 'A']}}",,,,{'all': []},
CDISC.SDTMIG.CG0603,CG0603,CDISC,SDTMIG,3.4,Draft,Record,Record Data,Fully Executable,"{'Classes': {'Include': ['FINDINGS']}, 'Domains': {'Include': ['FA']}}",-OBJ does not equal --DECOD of the parent record,,"Raise an error when parent record exists and DECOD ^= null, and --OBJ does not equal --DECOD","{'all': [{'name': None, 'operator': ''}]}",
CDISC.SDTMIG.CG0604,CG0604,CDISC,SDTMIG,3.4,Draft,Record,Record Data,Fully Executable,"{'Classes': {'Include': ['FINDINGS ABOUT']}, 'Domains': {'Include': ['F', 'A']}}",,,,{'all': []},
CDISC.SDTMIG.CG0605,CG0605,CDISC,SDTMIG,3.4,Draft,Record,Record Data,Fully Executable,"{'Classes': {'Include': ['FINDINGS ABOUT']}, 'Domains': {'Include': ['F', 'A']}}",,,,{'all': []},
CDISC.SDTMIG.CG0607,CG0607,CDISC,SDTMIG,3.4,Draft,Record,Range and limit,Fully Executable,"{'Classes': {'Include': ['FINDINGS']}, 'Domains': {'Include': ['MB']}}","Test targets an organism, group of organisms, or antigen, but MBTEST is not the name of the  organism/antigen.",,Verify MBTEST equals the name of the organism/antigen targeted by the identification assay.,"{'all': [{'name': 'MBTEST', 'operator': 'not_equal_to', 'value': None}]}",
CDISC.SDTMIG.CG0608,CG0608,CDISC,SDTMIG,3.4,Draft,Record,Record Data,Fully Executable,"{'Classes': {'Include': ['FINDINGS']}, 'Domains': {'Include': ['MB']}}","Test targets an organism, group of organisms, or antigen, but MBTSTDTL is not ""DETECTION""",,"Verify MBTSTDTL is ""DETECTION"" if the tests targets an organism, group of organisms, or antigen.","{'all': [{'name': 'MBTSTDTL', 'operator': 'not_equal_to', 'value': 'DETECTION'}]}",
CDISC.SDTMIG.CG0609,CG0609,CDISC,SDTMIG,3.4,Draft,Record,Record Data,Fully Executable,"{'Classes': {'Include': ['FINDINGS']}, 'Domains': {'Include': ['MB']}}","Test targets an organism, group of organisms, or antigen, but",,"Verify MBTESTCD is ""MCORGIDN"" if the test is for a non-targeted identification of organisms.","{'all': [{'name': 'MBTESTCD', 'operator': 'not_equal_to', 'value': 'MCORGIDN'}]}",
CDISC.SDTMIG.CG0610,CG0610,CDISC,SDTMIG,3.4,Draft,Record,Record Data,Fully Executable,"{'Classes': {'Include': ['FINDINGS']}, 'Domains': {'Include': ['MB']}}","Test is for culture characteristics, but MBTEST is not the name of the  organism or group of organisms.",,"If the test is for culture characteristics, verify that MBTEST equals the name of the  organism/antigen being characterized.","{'all': [{'name': 'MBTEST', 'operator': 'not_equal_to', 'value': None}]}",
CDISC.SDTMIG.CG0614,CG0614,CDISC,SDTMIG,3.4,Draft,Record,Record Data,Fully Executable,"{'Classes': {'Include': ['FINDINGS']}, 'Domains': {'Include': ['MB']}}",,,,{'all': []},
CDISC.SDTMIG.CG0615,CG0615,CDISC,SDTMIG,3.4,Draft,Record,Record Data,Fully Executable,"{'Classes': {'Include': ['FINDINGS']}, 'Domains': {'Include': ['MB']}}",,,,{'all': []},
CDISC.SDTMIG.CG0616,CG0616,CDISC,SDTMIG,3.4,Draft,Record,Record Data,Fully Executable,"{'Classes': {'Include': ['FINDINGS']}, 'Domains': {'Include': ['MB']}}",,,,{'all': []},
CDISC.SDTMIG.CG0617,CG0617,CDISC,SDTMIG,3.4,Draft,Record,Record Data,Fully Executable,"{'Classes': {'Include': ['FINDINGS']}, 'Domains': {'Include': ['MB']}}",,,,{'all': []},
CDISC.SDTMIG.CG0620,CG0620,CDISC,SDTMIG,"3.3,3.4",Draft,Record,Record Data,Fully Executable,"{'Classes': {'Include': ['SPECIAL PURPOSE']}, 'Domains': {'Include': ['SM', 'SE']}}",,,,{'all': []},
CDISC.SDTMIG.CG0650,CG0650,CDISC,SDTMIG,"3.4,3.2,3.3",Draft,Dataset,Dataset Metadata Check,Fully Executable,"{'Classes': {'Include': ['ALL']}, 'Domains': {'include_split_datasets': True, 'Include': ['AP--']}}","Associated Persons non-supplemental qualifier dataset associated with a split dataset does not have a dataset name with a length greater than 4 and less than, or equal to, 6.",,"When an Associated Persons non-supplemental qualifier dataset is associated with a split dataset, the dataset name length must be greater than 4 and less than, or equal to, 6.","{'any': [{'name': 'dataset_name', 'operator': 'longer_than', 'value': 6}, {'name': 'dataset_name', 'operator': 'shorter_than', 'value': 4}]}",
CDISC.SDTMIG.CG0651,CG0651,CDISC,SDTMIG,"3.4,3.3",Draft,Variable,Variable Metadata Check against Define XML,Fully Executable,"{'Classes': {'Include': ['ALL']}, 'Domains': {'Include': ['ALL']}}","Variable is missing, where variable core status is permissible and data is planned to be collected.",,"Raise an error when variable Core Status = Permissible and data is planned to be collected, but variable is not present","{'all': [{'name': 'define_variable_role', 'operator': 'equal_to', 'value': 'Permissible'}, {'name': 'variable_name', 'operator': 'not_exists'}]}",
CDISC.SDTMIG.CG0662,CG0662,CDISC,SDTMIG,3.2,Draft,Record,Record Data,Fully Executable,"{'Classes': {'Include': ['SPECIAL PURPOSE']}, 'Domains': {'Include': ['SE']}}",,,,{'all': []},
CDISC.SDTMIG.CG0663,CG0663,CDISC,SDTMIG,3.4,Draft,Variable,Record Data,Fully Executable,"{'Classes': {'Include': ['ALL']}, 'Domains': {'Include': ['AP--'], 'Exclude': ['APRELSUB', 'SUPP--', 'POOLDEF']}}",AP Core Domain does not have a value length of 4 characters beginning with 'AP' and ending with 2 character SDTM domain,,Raise an error when an AP Core Domain does not have a value length of 4 characters beginning with 'AP' and ending with 2 character SDTM domain,"{'any': [{'all': [{'name': 'DOMAIN', 'operator': 'not_prefix_matches_regex', 'prefix': 4, 'value': '^APFA$'}, {'name': 'DOMAIN', 'operator': 'not_matches_regex', 'value': '^AP[A-Z][A-Z0-9]$'}]}, {'all': [{'name': 'DOMAIN', 'operator': 'prefix_matches_regex', 'prefix': 4, 'value': '^APFA$'}, {'name': 'DOMAIN', 'operator': 'not_suffix_matches_regex', 'suffix': 2, 'value': '[A-Z0-9][A-Z0-9]$'}]}, {'name': 'DOMAIN', 'operator': 'matches_regex', 'value': '^AP(AD|AX|AP|SQ|SA)$'}, {'name': 'DOMAIN', 'operator': 'matches_regex', 'value': '^APFA(AD|AX|AP|SQ|SA)$'}]}",
CDISC.SDTMIG.CG0664,CG0664,CDISC,SDTMIG,3.4,Draft,Record,Record Data,Fully Executable,"{'Classes': {'Include': ['ALL']}, 'Domains': {'Include': ['ALL']}}",,,,{'all': []},
CDISC.SEND.147,SEND147,CDISC,"SENDIG,SENDIG-DART","v3.0,3.1,3.1.1,1.1",Draft,Record,Record Data,,,"--BLFL value must either be ""Y"" or null",,"Raise an error when --BLFL value is not populated with either ""Y"" or null","{'any': [{'name': '--BLFL', 'operator': 'empty'}, {'name': '--BLFL', 'operator': 'equal_to', 'value': 'Y'}]}",
CDISC.SEND.320,SEND320,CDISC,"SENDIG,SENDIG-DART","v3.1,v3.1.1,v1.1",Draft,Record,Record Data,,{'Classes': {'Include': ['ALL']}},,,Raise an error when MADTC or MIDTC or TFDTC is not null and not equal to the date/time of the subject disposition from DS domain,,
CDISC.SENDIG.102,102,CDISC,SENDIG,3.1,Draft,Record,Record Data,,"{'Classes': {'Include': ['SPECIAL PURPOSE']}, 'Domains': {'Include': ['DM']}}",AGETXT must be in number dash number format,"USUBJID,AGETXT",AGETXT must be in number dash number format,"{'all': [{'name': 'AGETXT', 'operator': 'non_empty'}, {'name': 'AGETXT', 'operator': 'not_matches_regex', 'value': '^[0-9]+-[0-9]+$'}]}",
CDISC.SENDIG.103,103,CDISC,SENDIG,3.1,Draft,Study,Record Data,,"{'Classes': {'Include': ['SPECIAL PURPOSE']}, 'Domains': {'Include': ['DM']}}","AGETXT is populated, so neither BRTHDTC nor AGE may be populated","USUBJID,AGETXT,BRTHDTC,AGE",AGETXT is used to present the age range in situations where the exact birthdate is not known.  If AGETXT is included both BRTHDTC and AGE should not be populated.,"{'all': [{'name': 'AGETXT', 'operator': 'non_empty'}, {'any': [{'name': 'BRTHDTC', 'operator': 'non_empty'}, {'name': 'AGE', 'operator': 'non_empty'}]}]}",
CDISC.SENDIG.104,104,CDISC,SENDIG,3.1,Draft,Study,Record Data,,"{'Classes': {'Include': ['SPECIAL PURPOSE']}, 'Domains': {'Include': ['DM']}}","AGE or AGETXT is populated, but AGEU is not populated","USUBJID,AGETXT,AGE,AGEU","AGEU is the until associated with AGE or AGETXT.  If either of those variables is populated, AGEU should be populated.","{'all': [{'name': 'AGEU', 'operator': 'empty'}, {'any': [{'name': 'AGETXT', 'operator': 'non_empty'}, {'name': 'AGE', 'operator': 'non_empty'}]}]}",
CDISC.SENDIG.105,105,CDISC,SENDIG,3.1,Draft,Dataset,Record Data,,"{'Classes': {'Include': ['SPECIAL PURPOSE']}, 'Domains': {'Include': ['DM']}}",SPECIES in not present in DM and there is no record TSPARMCD=SPECIES in TS and there is no record TXPARMCD=SPECIES in TX,,"Raise an error when the variable SPECIES is not oresent in DM, and there is no record TSPARMCD=SPECIES in TS and there is no record TXPARMCD=SPECIES in TX","{'all': [{'name': 'SPECIES', 'operator': 'not_exists'}, {'name': 'USUBJID', 'operator': 'exists'}, {'name': 'TS.TSPARMCD', 'operator': 'not_equal_to', 'value': 'SPECIES'}]}","{'domain': 'TS', 'id': '$ts_species', 'name': 'TSPARMCD', 'operator': 'equal_to', 'value': 'SPECIES'}"
CDISC.SENDIG.107,SENDIG107,CDISC,SENDIG,3.1,Draft,Record,Record Data,,"{'Classes': {'Include': ['SPECIAL PURPOSE']}, 'Domains': {'Include': ['DM']}}",ARMCD is present in TA.ARMCD but is not provided in DM.ARMCD,,"When study does not use multi-stage arm assignments and ARMCD is populated, ARMCD must be present in TA.ARMCD. This rule has been executed to identify all cases when ARMCD is not present in TA.ARMCD and therefore acknowledges that false positives may be recorded when multi-stage arm assignments are in use.","{'all': [{'name': 'TA', 'operator': 'exists'}, {'name': 'ARMCD', 'operator': 'empty'}]}",
CDISC.SENDIG.109,109,CDISC,SENDIG,3.1,Draft,Record,Record Data,,"{'Classes': {'Include': ['ALL']}, 'Domains': {'Include': ['ALL']}}",USUBJID is not found in DM.USUBJID,,Trigger error when USUBJID is not present in DM in DM.USUBJID,"{'all': [{'name': 'USUBJID', 'operator': 'non_empty'}, {'name': 'USUBJID', 'operator': 'is_not_contained_by', 'value': '$dm_usubjid'}]}","{'domain': 'DM', 'id': '$dm_usubjid', 'name': 'USUBJID', 'operator': 'distinct'}"
CDISC.SENDIG.113,113,CDISC,SENDIG,3.1,Draft,Record,Record Data,,"{'Classes': {'Include': ['SPECIAL PURPOSE']}, 'Domains': {'Include': ['DM']}}",SETCD is not present in TX.SETCD,,The value of SETCD in DM must be one of the SETCD values in TX.,"{'all': [{'name': 'SETCD', 'operator': 'non_empty'}, {'name': 'SETCD', 'operator': 'is_not_contained_by', 'value': '$tx_setcd'}]}","{'domain': 'TX', 'id': '$tx_setcd', 'name': 'SETCD', 'operator': 'distinct'}"
CDISC.SENDIG.118,118,CDISC,SENDIG,3.1,Draft,Record,Record Data,,"{'Classes': {'Include': ['SPECIAL PURPOSE']}, 'Domains': {'Include': ['CO']}}",IDVARVAL may not be populated as IDVAR is null,"IDVARVAL,IDVAR",IDVAR must be specified.,"{'all': [{'name': 'IDVAR', 'operator': 'empty'}, {'name': 'IDVARVAL', 'operator': 'non_empty'}]}",
CDISC.SENDIG.121,121,CDISC,SENDIG,3.1,Draft,Record,Record Data,,"{'Classes': {'Include': ['SPECIAL PURPOSE']}, 'Domains': {'Include': ['CO', 'RELREC']}}",IDVAR does not represent a variable present in the dataset identified in RDOMAIN,"RDOMAIN,USUBJID,IDVAR,IDVARVAL",When IDVAR and IDVARVAL are populated those referenced values must exist in the parent domain identified in RDOMAIN.,"{'all': [{'name': 'IDVAR', 'operator': 'is_not_valid_relationship', 'context': 'RDOMAIN', 'value': 'IDVARVAL'}]}",
CDISC.SENDIG.124,124,CDISC,SENDIG,3.1,Draft,Record,Record Data,,"{'Classes': {'Include': ['SPECIAL PURPOSE']}, 'Domains': {'Include': ['SE']}}",ELEMENT variable has a non-null value when ETCD has a value of 'UNPLAN',"ETCD,ELEMENT",Verify that ELEMENT value is blank when ETCD is equal to UNPLAN,"{'all': [{'name': 'ETCD', 'operator': 'equal_to', 'value': 'UNPLAN'}, {'name': 'ELEMENT', 'operator': 'non_empty'}]}",
CDISC.SENDIG.125,125,CDISC,SENDIG,3.1,Draft,Record,Record Data,,"{'Classes': {'Include': ['SPECIAL PURPOSE']}, 'Domains': {'Include': ['SE']}}",SEUPDES variable has a null value when ETCD has a value of 'UNPLAN',"ETCD,SEUPDES",Verify that SEUPDES is populated when ETCD is equal to UNPLAN,"{'all': [{'name': 'ETCD', 'operator': 'equal_to', 'value': 'UNPLAN'}, {'name': 'SEUPDES', 'operator': 'empty'}]}",
CDISC.SENDIG.130,130,CDISC,SENDIG,3.1,Draft,Record,Record Data,,"{'Classes': {'Include': ['SPECIAL PURPOSE']}, 'Domains': {'Include': ['SE']}}",SESEQ is not chronologically (based on SESTDTC) within USUBJID,"USUBJID,SESTDTC",Trigger error when the order of SESEQ is not chronologically (based on SESTDTC) within USUBJID,"{'all': [{'name': 'SESEQ', 'operator': 'target_is_sorted_by', 'value': ['SESTDTC', 'USUBJID']}]}",
CDISC.SENDIG.130,130,CDISC,SENDIG,3.1,Draft,Record,Record Data,,"{'Classes': {'Include': ['SPECIAL PURPOSE']}, 'Domains': {'Include': ['SE']}}",SESEQ is not chronologically (based on SESTDTC) within USUBJID,"USUBJID,SESEQ,SESTDTC",Trigger error when the order of SESEQ is not chronologically (based on SESTDTC) within USUBJID,"{'all': [{'name': 'SESEQ', 'operator': 'target_is_sorted_by', 'value': 'SESTDTC', 'within': 'USUBJID'}]}",
CDISC.SENDIG.132,132,CDISC,SENDIG,3.1,Draft,Record,Record Data,,"{'Classes': {'Include': ['INTERVENTIONS', 'FINDINGS']}, 'Domains': {'Include': ['ALL']}}","When POOLID is populated, USUBJID may not be populated","USUBJID,POOLID",Raise an error when both USUBJID and POOLID are empty,"{'all': [{'name': 'POOLID', 'operator': 'non_empty'}, {'name': 'USUBJID', 'operator': 'non_empty'}]}",
CDISC.SENDIG.134,134,CDISC,SENDIG,3.1,Draft,Record,Record Data,,"{'Classes': {'Include': ['INTERVENTIONS']}, 'Domains': {'Include': ['EX']}}","EXDOSE is 0, EXLOT may not be populated","EXDOSE,EXLOT","If no test article (as described in EXTRT) is administered (i.e., EXDOSE is 0), EXLOT is null.","{'all': [{'name': 'EXDOSE', 'operator': 'equal_to', 'value': 0}, {'name': 'EXLOT', 'operator': 'non_empty'}]}",
CDISC.SENDIG.138,138,CDISC,SENDIG,3.1,Draft,Record,Record Data,,"{'Classes': {'Include': ['INTERVENTIONS', 'EVENTS', 'FINDINGS']}, 'Domains': {'Include': ['ALL']}}",--SEQ is not unique within USUBJID or POOLID,"USUBJID,POOLID,--SEQ",Sequence number given to ensure uniqueness of subject records within a domain. May be any valid number.,"{'any': [{'all': [{'name': 'USUBJID', 'operator': 'non_empty'}, {'name': '--SEQ', 'operator': 'is_not_unique_set', 'value': 'USUBJID'}]}, {'all': [{'name': 'POOLID', 'operator': 'non_empty'}, {'name': '--SEQ', 'operator': 'is_not_unique_set', 'value': 'POOLID'}]}]}",
CDISC.SENDIG.139,139,CDISC,SENDIG,3.1,Draft,Record,Record Data,,"{'Classes': {'Include': ['ALL']}, 'Domains': {'Include': ['ALL']}}",POOLID is not found in POOLDEF.POOLID,,Trigger error when POOLID is not present in POOLDEF in DM.USUBJID,"{'all': [{'name': 'POOLID', 'operator': 'non_empty'}, {'name': 'POOLID', 'operator': 'is_not_contained_by', 'value': '$pooldef_poolid'}]}","{'domain': 'POOLDEF', 'id': '$pooldef_poolid', 'name': 'POOLID', 'operator': 'distinct'}"
CDISC.SENDIG.143,143,CDISC,SENDIG,3.1,Draft,Record,Record Data,,"{'Classes': {'Include': ['FINDINGS']}, 'Domains': {'Exclude': ['SC']}}",--STAT does not contain a value from the (ND) codelist,,Trigger error when --STAT is non-empty and does not contain a value from the ND codelist,"{'all': [{'name': '--STAT', 'operator': 'non_empty'}, {'name': '--STAT', 'operator': 'not_equal_to', 'value': 'NOT DONE'}]}",
CDISC.SENDIG.145,145,CDISC,SENDIG,3.1,Draft,Record,Record Data,,"{'Classes': {'Include': ['FINDINGS']}, 'Domains': {'Exclude': ['SC']}}","When --ORRES is populated, --STAT may not be populated.",,Trigger error when --ORRES is populated and --STAT is populated,"{'all': [{'name': '--ORRES', 'operator': 'non_empty'}, {'name': '--STAT', 'operator': 'non_empty'}]}",
CDISC.SENDIG.146,146,CDISC,SENDIG,3.1,Draft,Record,Record Data,,"{'Classes': {'Include': ['FINDINGS']}, 'Domains': {'Exclude': ['SC']}}","When --STAT is not populated, --REASND may not be populated.",,Trigger error when --STAT is not populated and --REASND is populated,"{'all': [{'name': '--STAT', 'operator': 'empty'}, {'name': '--REASND', 'operator': 'non_empty'}]}",
CDISC.SENDIG.147,147,CDISC,SENDIG,3.1,Draft,Record,Record Data,,"{'Classes': {'Include': ['FINDINGS']}, 'Domains': {'Include': ['ALL']}}",--BLFL value must either be 'Y' or null,,"Trigger error when --BLFL is populated and the value is different from ""Y""","{'all': [{'name': '--BLFL', 'operator': 'non_empty'}, {'name': '--BLFL', 'operator': 'not_equal_to', 'value': 'Y'}]}",
CDISC.SENDIG.148,148,CDISC,SENDIG,3.1,Draft,Record,Record Data,,"{'Classes': {'Include': ['FINDINGS']}, 'Domains': {'Include': ['ALL']}}",--EXFL value must either be 'Y' or null,,"Trigger error when --EXFL is populated and the value is different from ""Y""","{'all': [{'name': '--EXFL', 'operator': 'non_empty'}, {'name': '--EXFL', 'operator': 'not_equal_to', 'value': 'Y'}]}",
CDISC.SENDIG.149,149,CDISC,SENDIG,3.1,Draft,Record,Record Data,,"{'Classes': {'Include': ['FINDINGS']}, 'Domains': {'Include': ['ALL']}}",--REASEX may only be present when --EXCLFL is 'Y',,Trigger error when --REASEX is populated and --EXCLFL is not 'Y',"{'all': [{'name': '--EXFL', 'operator': 'not_equal_to', 'value': 'Y'}, {'name': '--REASEX', 'operator': 'non_empty'}]}",
CDISC.SENDIG.150,150,CDISC,SENDIG,3.1,Draft,Record,Record Data,,"{'Classes': {'Include': ['FINDINGS']}, 'Domains': {'Include': ['BG']}}",The Body Weight Gain test is not unique for this subject and date/time.,"USUBJID,BGTESTCD,BGDTC","Raise an error when there is more than one record present for any particular Body Weight Gain test, in the BG Domain, for a subject on a particular date.","{'all': [{'name': 'BGDTC', 'operator': 'non_empty'}, {'name': 'BGTESTCD', 'operator': 'is_not_unique_set', 'value': ['USUBJID', 'BGDTC']}]}",
CDISC.SENDIG.153,153,CDISC,SENDIG,3.1,Draft,Record,Record Data,,"{'Classes': {'Include': ['FINDINGS']}, 'Domains': {'Include': ['BG']}}",BGSTRESU is not consistent within BGTESTCD,"BGSTRESU,BGTESTCD",Trigger error when --BGSTRESU is not consistent within BGTESTCD,"{'all': [{'name': 'BGSTRESU', 'operator': 'is_unique_set', 'value': 'BGTESTCD'}]}",
CDISC.SENDIG.156,156,CDISC,SENDIG,3.1,Draft,Record,Record Data,,"{'Classes': {'Include': ['FINDINGS']}, 'Domains': {'Include': ['CL']}}",The Clinical Observation test result is not unique for this subject and date/time.,"USUBJID,POOLID,CLTESTCD,CLORRES,CLDTC","Raise an error when there is more than one record present for any particular Result or Findings as Collected, in the CL Domain, for a subject or pool on a particular date.","{'any': [{'all': [{'name': 'CLDTC', 'operator': 'non_empty'}, {'name': 'USUBJID', 'operator': 'non_empty'}, {'name': 'CLORRES', 'operator': 'is_not_unique_set', 'value': ['USUBJID', 'CLDTC']}]}, {'all': [{'name': 'CLDTC', 'operator': 'non_empty'}, {'name': 'POOLID', 'operator': 'non_empty'}, {'name': 'CLORRES', 'operator': 'is_not_unique_set', 'value': ['POOLID', 'CLDTC']}]}]}",
CDISC.SENDIG.161,161,CDISC,SENDIG,3.1,Draft,Record,Record Data,,"{'Classes': {'Include': ['FINDINGS']}, 'Domains': {'Include': ['CL']}}",CLRESCAT may not be equal to CLTEST and CLRESCAT may not be equal to CLSCAT,"CLRESCAT,CLTEST,CLSCAT",Trigger error when CLRESCAT is equal to CLTEST or when CLRESCAT is equal to CLSCAT,"{'any': [{'name': 'CLRESCAT', 'operator': 'equal_to', 'value': 'CLTEST'}, {'name': 'CLRESCAT', 'operator': 'equal_to', 'value': 'CLSCAT'}]}",
CDISC.SENDIG.169,169,CDISC,SENDIG,3.1,Draft,Record,Record Data,,"{'Classes': {'Include': ['FINDINGS']}, 'Domains': {'Include': ['LB']}}",The Clinical Observation test result is not unique for this subject and date/time.,"USUBJID,POOLID,LBTESTCD,LBSPEC,LBDTC","Raise an error when there is more than one record present for any particular Result or Findings as Collected, in the CL Domain, for a subject or pool on a particular date.","{'any': [{'all': [{'name': 'LBDTC', 'operator': 'non_empty'}, {'name': 'USUBJID', 'operator': 'non_empty'}, {'name': 'LBTESTCD', 'operator': 'is_not_unique_set', 'value': ['USUBJID', 'LBSPEC', 'LBDTC']}]}, {'all': [{'name': 'LBDTC', 'operator': 'non_empty'}, {'name': 'POOLID', 'operator': 'non_empty'}, {'name': 'LBTESTCD', 'operator': 'is_not_unique_set', 'value': ['POOLID', 'LBSPEC', 'LBDTC']}]}]}",
CDISC.SENDIG.17,17,CDISC,"SENDIG,SENDIG-DART","3.0,3.1,3.1.1,1.1",Draft,Record,Record Data,Fully Executable,"{'Classes': {'Include': ['FINDINGS']}, 'Domains': {'Include': ['ALL']}}",--TESTCD > 8 chars,--TESTCD,Raise an error when --TESTCD > 8 chars,"{'any': [{'name': '--TESTCD', 'operator': 'longer_than', 'value': 8}]}",
CDISC.SENDIG.172,172,CDISC,SENDIG,3.1,Draft,Record,Record Data,,"{'Classes': {'Include': ['FINDINGS']}, 'Domains': {'Include': ['ALL']}}",--DRVFL must be null or 'Y',,Raise an error when record is derived in a --DRVFL is not null and is not equal to 'Y',"{'all': [{'name': '--DRVFL', 'operator': 'non_empty'}, {'name': '--DRVFL', 'operator': 'not_equal_to', 'value': 'Y'}]}",
CDISC.SENDIG.175,175,CDISC,SENDIG,3.1,Draft,Record,Record Data,,"{'Classes': {'Include': ['FINDINGS']}, 'Domains': {'Include': ['MA']}}",The Macroscopy Finding test result is not unique for this subject and date/time.,"USUBJID,MATESTCD,MAORRES,MASPEC,MADTC","Raise an error when there is more than one record present for any particular Macroscopic Finding in the MA Domain, for a subject on a particular date.","{'all': [{'name': 'MADTC', 'operator': 'non_empty'}, {'name': 'MASPEC', 'operator': 'non_empty'}, {'name': 'MAORRES', 'operator': 'is_not_unique_set', 'value': ['USUBJID', 'MASPEC', 'MADTC']}]}",
CDISC.SENDIG.177,177,CDISC,SENDIG,3.1,Draft,Record,Record Data,,"{'Classes': {'Include': ['FINDINGS']}, 'Domains': {'Include': ['MA']}}",When MATEST is 'Gross Pathological Examination' then MASPEC is required.,,"When MATEST is ""Gross Pathological Examination"" MASPEC is required.","{'all': [{'name': 'MATEST', 'operator': 'equal_to', 'value': 'Gross Pathological Examination'}, {'name': 'MASPEC', 'operator': 'empty'}]}",
CDISC.SENDIG.178,178,CDISC,SENDIG,3.1,Draft,Record,Record Data,,"{'Classes': {'Include': ['FINDINGS']}, 'Domains': {'Include': ['MA']}}",When MATEST is 'Clinical Signs Follow-up' MASPEC may not be populated.,,When MATEST is 'Clinical Signs Follow-up' MASPEC should not be used.,"{'all': [{'name': 'MATEST', 'operator': 'equal_to', 'value': 'Clinical Signs Follow-up'}, {'name': 'MASPEC', 'operator': 'non_empty'}]}",
CDISC.SENDIG.18,18,CDISC,SENDIG,3.1,Draft,Record,Record Data,,"{'Classes': {'Include': ['FINDINGS']}, 'Domains': {'Include': ['ALL']}}",--TESTCD may not start with a number,--TESTCD,Raise an error when --TESTCD starts with a number,"{'any': [{'name': '--TESTCD', 'operator': 'matches_regex', 'value': '^[0-9]'}]}",
CDISC.SENDIG.180,180,CDISC,SENDIG,3.1,Draft,Record,Record Data,,"{'Classes': {'Include': ['FINDINGS']}, 'Domains': {'Include': ['MI']}}",The Microscopic Finding test result is not unique for this subject and date/time.,"USUBJID,MITESTCD,MIORRES,MISPEC,MIDTC","Raise an error when there is more than one record present for any particular Microscopic Finding in the MI Domain, for a subject on a particular date.","{'all': [{'name': 'MIDTC', 'operator': 'non_empty'}, {'name': 'MISPEC', 'operator': 'non_empty'}, {'name': 'MIORRES', 'operator': 'is_not_unique_set', 'value': ['USUBJID', 'MISPEC', 'MIDTC']}]}",
CDISC.SENDIG.182,182,CDISC,SENDIG,3.1,Draft,Record,Record Data,,"{'Classes': {'Include': ['FINDINGS']}, 'Domains': {'Include': ['LB', 'MA', 'MI', 'PC']}}",--SPCUFL must be 'N' or null.,,Raise an error when record is --SPCUFL is not null and is not equal to 'N',"{'all': [{'name': '--SPCUFL', 'operator': 'non_empty'}, {'name': '--SPCUFL', 'operator': 'not_equal_to', 'value': 'N'}]}",
CDISC.SENDIG.183,183,CDISC,SENDIG,3.1,Draft,Record,Record Data,,"{'Classes': {'Include': ['FINDINGS']}, 'Domains': {'Include': ['MA', 'MI']}}","--DTHREF must be 'Y, 'N', 'U' or null.",,"Raise an error when record is --DTHREL is not null and is not equal to 'Y', 'N' or 'U'","{'all': [{'name': '--DTHREL', 'operator': 'non_empty'}, {'name': '--DTHREL', 'operator': 'not_equal_to', 'value': 'Y'}, {'name': '--DTHREL', 'operator': 'not_equal_to', 'value': 'U'}, {'name': '--DTHREL', 'operator': 'not_equal_to', 'value': 'N'}]}",
CDISC.SENDIG.188,180,CDISC,SENDIG,3.1,Draft,Record,Record Data,,"{'Classes': {'Include': ['FINDINGS']}, 'Domains': {'Include': ['OM']}}",The Organ Measurement test is not unique for this subject and date/time.,"USUBJID,OMTESTCD,OMSPEC,OMDTC","Raise an error when there is more than one record present for any particular Organ Measurement test in the MO Domain, for a subject on a particular date.","{'all': [{'name': 'OMDTC', 'operator': 'non_empty'}, {'name': 'OMSPEC', 'operator': 'non_empty'}, {'name': 'OMDTC', 'operator': 'is_not_unique_set', 'value': ['USUBJID', 'OMTESTCD', 'OMSPEC']}]}",
CDISC.SENDIG.191,191,CDISC,SENDIG,3.1,Draft,Record,Record Data,,"{'Classes': {'Include': ['FINDINGS']}, 'Domains': {'Include': ['PM']}}",The palpable mass test and result is not unique for this subject and date/time.,"USUBJID,PMTESTCD,PMORRES,PMDTC","Raise an error when there is more than one record present for any particular Palpable Mass test per Palpable Mass test in the PM Domain, for a subject on a particular date.","{'all': [{'name': 'PMDTC', 'operator': 'non_empty'}, {'name': 'PMDTC', 'operator': 'is_not_unique_set', 'value': ['USUBJID', 'PMTESTCD', 'PMORRES']}]}",
CDISC.SENDIG.192,192,CDISC,SENDIG,3.1,Draft,Record,Record Data,,"{'Classes': {'Include': ['FINDINGS']}, 'Domains': {'Include': ['PC']}}",The Pharmacokinetics Concentration test is not unique for this subject or pool and specimen and date/time.,"USUBJID,POOLID,PCTESTCD,PCSPEC,PCDTC","Raise an error when there is more than one record present for any particular Pharmacokinetics Concentration, in the PC Domain, for a subject or pool on a particular date.","{'any': [{'all': [{'name': 'PCDTC', 'operator': 'non_empty'}, {'name': 'USUBJID', 'operator': 'non_empty'}, {'name': 'PCTESTCD', 'operator': 'is_not_unique_set', 'value': ['USUBJID', 'PCSPEC', 'PCDTC']}]}, {'all': [{'name': 'PCDTC', 'operator': 'non_empty'}, {'name': 'POOLID', 'operator': 'non_empty'}, {'name': 'PCTESTCD', 'operator': 'is_not_unique_set', 'value': ['POOLID', 'PCSPEC', 'PCDTC']}]}]}",
CDISC.SENDIG.194,194,CDISC,SENDIG,3.1,Draft,Record,Record Data,,"{'Classes': {'Include': ['FINDINGS']}, 'Domains': {'Include': ['PC']}}",PCSTRESN may not be populated as PCORRES is less than PCLLOQ,"PCORRES,PCSTRESN","If the PCORRES result is less than the Lower Limit of Quantification, then PCSTRESN should be null and not populated with the value of zero (0).","{'all': [{'name': 'PCORRES', 'operator': 'less_than', 'value': 'PCLLOQ'}, {'name': 'PCSTRESN', 'operator': 'non_empty'}]}",
CDISC.SENDIG.199,199,CDISC,SENDIG,3.1,Draft,Record,Record Data,,"{'Classes': {'Include': ['FINDINGS']}, 'Domains': {'Include': ['SC']}}",The Subject Characteristics test is not unique for this subject.,"USUBJID,SCTESTCD",Raise an error when there is more than one record present for any particular Subject Characteristics test for a subject.,"{'all': [{'name': 'SCTESTCD', 'operator': 'is_not_unique_set', 'value': ['USUBJID']}]}",
CDISC.SENDIG.20,20,CDISC,SENDIG,3.1,Draft,Record,Record Data,,"{'Classes': {'Include': ['RELATIONSHIP']}, 'Domains': {'Include': ['SUPP--']}}",QNAM > 8 chars,"IDVAR,IDVARVAL,QNAM",Raise an error when QNAM > 8 chars,"{'all': [{'name': 'QNAM', 'operator': 'longer_than', 'value': 8}]}",
CDISC.SENDIG.200,200,CDISC,SENDIG,3.1,Draft,Record,Record Data,,"{'Classes': {'Include': ['FINDINGS']}, 'Domains': {'Include': ['TF']}}",The Tumor Findings test result is not unique for this subject and specimen.,"USUBJID,TFTESTCD,TFORRES,TFSPEC",Raise an error when there is more than one record present for any particular tumor test result for a subject and specimen.,"{'all': [{'name': 'TFORRES', 'operator': 'is_not_unique_set', 'value': ['USUBJID', 'TFSPEC']}]}",
CDISC.SENDIG.206,206,CDISC,SENDIG,3.1,Draft,Record,Record Data,,"{'Classes': {'Include': ['FINDINGS']}, 'Domains': {'Include': ['VS']}}",The Vital Signs test is not unique for this subject and measurement datetime.,"USUBJID,VSTESTCD,VSDTC",Raise an error when there is more than one record present for any particular Vital Signs test for a subject and measurement date/time.,"{'all': [{'name': 'VSTESTCD', 'operator': 'is_not_unique_set', 'value': ['USUBJID', 'VSDTC']}]}",
CDISC.SENDIG.208,208,CDISC,SENDIG,3.1,Draft,Record,Record Data,,"{'Classes': {'Include': ['FINDINGS']}, 'Domains': {'Include': ['EG']}}",The ECG test is not unique for this subject and measurement datetime.,"USUBJID,EGTESTCD,EGDTC",Raise an error when there is more than one record present for any particular ECG test for a subject and measurement date/time.,"{'all': [{'name': 'EGTESTCD', 'operator': 'is_not_unique_set', 'value': ['USUBJID', 'EGDTC']}]}",
CDISC.SENDIG.21,21,CDISC,SENDIG,3.1,Draft,Record,Record Data,,"{'Classes': {'Include': ['RELATIONSHIP']}, 'Domains': {'Include': ['SUPP--']}}",QNAM may not start with a number,"IDVAR,IDVARVAL,QNAM",Raise an error when QNAM starts with a number,"{'all': [{'name': 'QNAM', 'operator': 'matches_regex', 'value': '^[0-9]'}]}",
CDISC.SENDIG.213,213,CDISC,SENDIG,3.1,Draft,Record,Record Data,,"{'Classes': {'Include': ['TRIAL DESIGN']}, 'Domains': {'Include': ['TE']}}",ELEMENT and ETCD do not have a one-to-one relationship.,"ETCD,ELEMENT",ETCD and ELEMENT have a one-to-one relationship,"{'all': [{'name': 'ETCD', 'operator': 'exists'}, {'name': 'ELEMENT', 'operator': 'exists'}, {'any': [{'name': 'ETCD', 'operator': 'is_not_unique_relationship', 'value': 'ELEMENT'}, {'name': 'ELEMENT', 'operator': 'is_not_unique_relationship', 'value': 'ETCD'}]}]}",
CDISC.SENDIG.214,214,CDISC,SENDIG,3.1,Draft,Record,Record Data,,"{'Classes': {'Include': ['TRIAL DESIGN']}, 'Domains': {'Include': ['TE']}}",TEDUR cannot be null when TEENRL is null,"TEENRL,TEDUR",Raise an error if TEDUR is null when TEENRL is null,"{'all': [{'name': 'TEENRL', 'operator': 'empty'}, {'name': 'TEDUR', 'operator': 'empty'}]}",
CDISC.SENDIG.216,216,CDISC,SENDIG,3.1,Draft,Dataset,Record Data,,"{'Classes': {'Include': ['TRIAL DESIGN']}, 'Domains': {'Include': ['TE']}}","The combination of ELEMENT, TESTRL, TEENRL, and TEDUR is not unique for each ETCD","ELEMENT,TESTRL,TEENRL,TEDUR","The combination of ELEMENT, TESTRL, TEENRL, and TEDUR must be unique for each ETCD.","{'any': [{'all': [{'name': 'ETCD', 'operator': 'is_not_unique_set', 'value': ['ELEMENT', 'TESTRL', 'TEENRL']}, {'name': 'TEDUR', 'operator': 'not_exists'}]}, {'all': [{'name': 'ETCD', 'operator': 'is_not_unique_set', 'value': ['ELEMENT', 'TESTRL', 'TEDUR']}, {'name': 'TEENRL', 'operator': 'not_exists'}]}, {'name': 'ETCD', 'operator': 'is_not_unique_set', 'value': ['ELEMENT', 'TESTRL', 'TEENRL', 'TEDUR']}]}",
CDISC.SENDIG.22,22,CDISC,SENDIG,3.1,Draft,Record,Record Data,,"{'Classes': {'Include': ['RELATIONSHIP']}, 'Domains': {'Include': ['SUPP--']}}","QNAM value cannot contain characters other than letters, numbers or underscores","IDVAR,IDVARVAL,QNAM","Raise an error when QNAM contains anything else than a letter, number or underscore","{'all': [{'name': 'QNAM', 'operator': 'not_matches_regex', 'value': '^[A-Z0-9_]*$'}]}",
CDISC.SENDIG.222,222,CDISC,SENDIG,3.1,Draft,Record,Record Data,,"{'Classes': {'Include': ['TRIAL DESIGN']}, 'Domains': {'Include': ['TA']}}",TA.ETCD is not present in TE.ETCD,,The values of ETCD used in the Trial Arms dataset must match values for the same Element in the Trial Elements dataset.,"{'all': [{'name': 'ETCD', 'operator': 'non_empty'}, {'name': 'ETCD', 'operator': 'is_not_contained_by', 'value': '$te_etcd'}]}","{'domain': 'TE', 'id': '$te_etcd', 'name': 'ETCD', 'operator': 'distinct'}"
CDISC.SENDIG.223,223,CDISC,SENDIG,3.1,Draft,Record,Record Data,,"{'Classes': {'Include': ['SPECIAL PURPOSE']}, 'Domains': {'Include': ['DM']}}",ARMCD is not present in TA.ARMCD,,"When study does not use multi-stage arm assignments and ARMCD is populated, ARMCD must be present in TA.ARMCD. This rule has been executed to identify all cases when ARMCD is not present in TA.ARMCD and therefore acknowledges that false positives may be recorded when multi-stage arm assignments are in use.","{'all': [{'name': 'ARMCD', 'operator': 'non_empty'}, {'name': 'ARMCD', 'operator': 'is_not_contained_by', 'value': '$ta_armcd'}]}","{'domain': 'TA', 'id': '$ta_armcd', 'name': 'ARMCD', 'operator': 'distinct'}"
CDISC.SENDIG.224,224,CDISC,SENDIG,3.1,Draft,Record,Record Data,,"{'Classes': {'Include': ['SPECIAL PURPOSE']}, 'Domains': {'Include': ['DM']}}",ARMCD is not present in TA.ARMCD,,"When study does not use multi-stage arm assignments and ARMCD is populated, ARMCD must be present in TA.ARMCD. This rule has been executed to identify all cases when ARMCD is not present in TA.ARMCD and therefore acknowledges that false positives may be recorded when multi-stage arm assignments are in use.","{'any': [{'all': [{'name': 'ARMCD', 'operator': 'non_empty'}, {'name': 'ARMCD', 'operator': 'is_not_contained_by', 'value': '$ta_armcd'}]}, {'all': [{'name': 'ARM', 'operator': 'non_empty'}, {'name': 'ARM', 'operator': 'is_not_contained_by', 'value': '$ta_arm'}]}]}","{'domain': 'TA', 'id': '$ta_armcd', 'name': 'ARMCD', 'operator': 'distinct'},{'domain': 'TA', 'id': '$ta_arm', 'name': 'ARM', 'operator': 'distinct'}"
CDISC.SENDIG.225,225,CDISC,SENDIG,3.1,Draft,Record,Record Data,,"{'Classes': {'Include': ['SPECIAL PURPOSE']}, 'Domains': {'Include': ['DM']}}",ARM is not present in TA.ARM,,"When study does not use multi-stage arm assignments and ARMCD is populated, ARMCD must be present in TA.ARMCD. This rule has been executed to identify all cases when ARMCD is not present in TA.ARMCD and therefore acknowledges that false positives may be recorded when multi-stage arm assignments are in use.","{'all': [{'name': 'ARM', 'operator': 'non_empty'}, {'name': 'ARM', 'operator': 'is_not_contained_by', 'value': '$ta_arm'}]}","{'domain': 'TA', 'id': '$ta_arm', 'name': 'ARM', 'operator': 'distinct'}"
CDISC.SENDIG.23,23,CDISC,SENDIG,3.1,Draft,Record,Record Data,,"{'Classes': {'Include': ['RELATIONSHIP']}, 'Domains': {'Include': ['SUPP--']}}",--QNAM value must be uppercase,"IDVAR,IDVARVAL,QNAM",Raise an error when QNAM has lowercase characters,"{'all': [{'name': 'QNAM', 'operator': 'not_matches_regex', 'value': '^[A-Z0-9_]*$'}]}",
CDISC.SENDIG.231,231,CDISC,SENDIG,3.1,Draft,Record,Record Data,,"{'Classes': {'Include': ['TRIAL DESIGN']}, 'Domains': {'Include': ['TX']}}",TXSEQ is not unique in TX,,TXSEQ should be unique for each record within the TX dataset.,"{'all': [{'name': 'TXSEQ', 'operator': 'is_not_unique_set', 'value': 'DOMAIN'}]}",
CDISC.SENDIG.232,232,CDISC,SENDIG,3.1,Draft,Record,Record Data,,"{'Classes': {'Include': ['TRIAL DESIGN']}, 'Domains': {'Include': ['TX']}}",TXPARMCD value has more than 8 characters,,TXPARMCD Short character value for the Trial Set parameter described in TXPARM.  Maximum 8 characters.,"{'all': [{'name': 'TXPARMCD', 'operator': 'longer_than', 'value': 8}]}",
CDISC.SENDIG.237,237,CDISC,SENDIG,3.1,Draft,Record,Record Data,,"{'Classes': {'Include': ['TRIAL DESIGN']}, 'Domains': {'Include': ['TX']}}",The combination of SETCD and SET is not a unique pair,,Each SETCD/SET is a unique pair.,"{'all': [{'name': 'SETCD', 'operator': 'is_not_unique_relationship', 'value': 'SET'}]}",
CDISC.SENDIG.24,24,CDISC,SENDIG,3.1,Draft,Record,Record Data,Fully Executable,"{'Classes': {'Include': ['TRIAL DESIGN', 'SPECIAL PURPOSE']}, 'Domains': {'Include': ['TA', 'TE', 'SE']}}",ETCD value is greater than 8,ETCD,The length of ETCD should be no greater than 8,"{'all': [{'name': 'ETCD', 'operator': 'longer_than', 'value': 8}]}",
CDISC.SENDIG.240,240,CDISC,SENDIG,3.1,Draft,Record,Record Data,,"{'Classes': {'Include': ['TRIAL DESIGN']}, 'Domains': {'Include': ['TX']}}","The value of TXVAL for TXPARMCD=TRTDOS is neither a number, a semicolon-delimited string containing numbers without spaces, or ""SEE PROTOCOL""",,"The value of TRTDOS is either a number, a semicolon-delimited string containing numbers without spaces, or ""SEE PROTOCOL"" for more complex dosing regimens.","{'all': [{'name': 'TXPARMCD', 'operator': 'equal_to', 'value': 'TRTDOS'}, {'name': 'TXVAL', 'operator': 'not_matches_regex', 'value': '[+-]?([0-9]*[.])?[0-9]+$'}, {'name': 'TXVAL', 'operator': 'not_matches_regex', 'value': '^(\\s*-?\\d+(\\.\\d+)?)(\\s*,\\s*-?\\d+(\\.\\d+)?)*$'}, {'name': 'TXVAL', 'operator': 'not_equal_to', 'value': 'SEE PROTOCOL'}]}",
CDISC.SENDIG.243,243,CDISC,SENDIG,3.1,Draft,Record,Record Data,,"{'Classes': {'Include': ['TRIAL DESIGN']}, 'Domains': {'Include': ['TX']}}",The value of TXVAL is not in ISO 8601 date/datetime format,,Trial Set Parameters that include dates are required to be presented according to the international standard ISO 8601,"{'all': [{'any': [{'name': 'TXPARMCD', 'operator': 'equal_to', 'value': 'DOSENDTC'}, {'name': 'TXPARMCD', 'operator': 'equal_to', 'value': 'DOSSTDTC'}]}, {'name': 'TXVAL', 'operator': 'invalid_date'}]}",
CDISC.SENDIG.244,244,CDISC,SENDIG,3.1,Draft,Record,Record Data,,"{'Classes': {'Include': ['TRIAL DESIGN']}, 'Domains': {'Include': ['TX']}}","The value of TXVAL is not may only be ""C"" or ""F"" for TXPARMCD=ENTEMPU",,"The units associated with the environmental temperature; only ""C"" or ""F"" is acceptable.","{'all': [{'name': 'TXPARMCD', 'operator': 'equal_to', 'value': 'ENVTEMPU'}, {'name': 'TXVAL', 'operator': 'not_equal_to', 'value': 'C'}, {'name': 'TXVAL', 'operator': 'not_equal_to', 'value': 'F'}]}",
CDISC.SENDIG.246,246,CDISC,SENDIG,3.1,Draft,Record,Record Data,,"{'Classes': {'Include': ['TRIAL DESIGN']}, 'Domains': {'Include': ['TS']}}",The value of TSSEQ is not unique within the value for TSPARMCD,,The TSSEQ variable is a unique identifier for each record and is required to identify each record as unique in cases where the same TSPARMCD is used within the dataset.,"{'all': [{'name': 'TSSEQ', 'operator': 'is_not_unique_set', 'value': 'TSPARMCD'}]}",
CDISC.SENDIG.25,25,CDISC,SENDIG,3.1,Draft,Record,Record Data,,"{'Classes': {'Include': ['TRIAL DESIGN', 'SPECIAL PURPOSE']}, 'Domains': {'Include': ['DM', 'TX']}}",SETCD value is greater than 8,SETCD,The length of SETCD should be no greater than 8,"{'all': [{'name': 'SETCD', 'operator': 'longer_than', 'value': 8}]}",
CDISC.SENDIG.250,250,CDISC,SENDIG,3.1,Draft,Dataset,Record Data,,"{'Classes': {'Include': ['TRIAL DESIGN']}, 'Domains': {'Include': ['TS']}}",There is a record with TSPARMCD=AGE and there is a record with TSPARMCD=AGETXT,,Either the AGE or the AGETXT variable should be populated.,"{'all': [{'name': 'TSPARMCD', 'operator': 'equal_to', 'value': 'AGE'}, {'name': 'TSPARMCD', 'operator': 'equal_to', 'value': 'AGETXT'}]}",
CDISC.SENDIG.251,251,CDISC,SENDIG,3.1,Draft,Record,Record Data,,"{'Classes': {'Include': ['TRIAL DESIGN']}, 'Domains': {'Include': ['TS']}}","The value of TSVAL is not ""Y"" or ""N"" for TSPARMCD=SRANDOM",,"When TSPARMCD=SRANDOM, the value of TSVAL must be either ""Y"" or ""N"".","{'all': [{'name': 'TSPARMCD', 'operator': 'equal_to', 'value': 'SRANDOM'}, {'name': 'TSVAL', 'operator': 'not_equal_to', 'value': 'Y'}, {'name': 'TSVAL', 'operator': 'not_equal_to', 'value': 'N'}]}",
CDISC.SENDIG.254,254,CDISC,SENDIG,3.1,Draft,Record,Record Data,,"{'Classes': {'Include': ['RELATIONSHIP']}, 'Domains': {'Include': ['SUPP--']}}",Duplicate value of the combination of USUBJID or POOLID with QNAM,,There may be only be one record in a SUPP-- dataset with the same QNAM value within USUBJID or POOLID.,"{'any': [{'all': [{'name': 'QNAM', 'operator': 'is_not_unique_set', 'value': ['USUBJID']}]}, {'all': [{'name': 'QNAM', 'operator': 'is_not_unique_set', 'value': ['POOLID']}]}]}",
CDISC.SENDIG.255,255,CDISC,SENDIG,3.1,Draft,Record,Record Data,,"{'Classes': {'Include': ['RELATIONSHIP']}, 'Domains': {'Include': ['SUPP--']}}","When populated QORIG may only have one of the values COLLECTED, DERIVED, OTHER, and NOT AVAILABLE",,"QORIG is used to indicate the origin of the data. Possible values are COLLECTED, DERIVED, OTHER, and NOT AVAILABLE.","{'all': [{'name': 'QORIG', 'operator': 'non_empty'}, {'name': 'QORIG', 'operator': 'not_equal_to', 'value': 'COLLECTED'}, {'name': 'QORIG', 'operator': 'not_equal_to', 'value': 'DERIVED'}, {'name': 'QORIG', 'operator': 'not_equal_to', 'value': 'OTHER'}, {'name': 'QORIG', 'operator': 'not_equal_to', 'value': 'NOT AVAILABLE'}]}",
CDISC.SENDIG.257,257,CDISC,SENDIG,3.1,Draft,Record,Record Data,,"{'Classes': {'Include': ['RELATIONSHIP']}, 'Domains': {'Include': ['SUPP--']}}",The record does not have a value for QVAL,,All records in the SUPP-- datasets must have a value for QVAL.,"{'all': [{'name': 'QVAL', 'operator': 'empty'}]}",
CDISC.SENDIG.26,26,CDISC,SENDIG,3.1,Draft,Record,Record Data,Fully Executable,"{'Classes': {'Include': ['TRIAL DESIGN']}, 'Domains': {'Include': ['TS']}}",Length of TSPARMCD is greater than 8,"TSPARM,TSPARMCD",Trigger error when length of TSPARMCD is greater than 8,"{'all': [{'name': 'TSPARMCD', 'operator': 'longer_than', 'value': 8}]}",
CDISC.SENDIG.263,263,CDISC,SENDIG,3.1,Draft,Record,Record Data,,"{'Classes': {'Include': ['SPECIAL PURPOSE']}, 'Domains': {'Include': ['POOLDEF']}}",No subject is defined in POOLDEF for POOLID,,Trigger error when POOLID does not contain a subject in POOLDEF,"{'all': [{'name': 'POOLID', 'operator': 'non_empty'}, {'name': 'USUBJID', 'operator': 'empty'}]}",
CDISC.SENDIG.266,266,CDISC,SENDIG,3.1,Draft,Dataset,Variable Metadata Check,,"{'Classes': {'Include': ['ALL']}, 'Domains': {'Include': ['ALL']}}",Variable is not allowed in SDTM/SEND,,Trigger when variable cannot be found in the SDTM model (v.1.7 for SENDIG-3.1),"{'all': [{'name': 'variable_name', 'operator': 'is_not_contained_by', 'value': '$model_variables'}]}","{'id': '$model_variables', 'operator': 'get_column_order_from_library', 'name': 'MODELVARIABLES'}"
CDISC.SENDIG.27.1,27.1,CDISC,SENDIG,3.1,Draft,Record,Record Data,,"{'Classes': {'Include': ['SPECIAL PURPOSE', 'TRIAL DESIGN']}, 'Domains': {'Include': ['DM', 'TA', 'TX']}}",ARMCD value length is greater than 20,ARMCD,Verify ARMCD value length is <= 20,"{'all': [{'name': 'ARMCD', 'operator': 'longer_than', 'value': 20}]}",
CDISC.SENDIG.279,279,CDISC,SENDIG,3.1,Draft,Record,Record Data,,"{'Classes': {'Include': ['FINDINGS', 'INTERVENTIONS']}, 'Domains': {'Include': ['ALL']}}",--TPTREF is empty and --ELTM is not empty,"--TPTREF,--ELTM","Raise an error when --TPTREF is empty, but --ELTM is not empty","{'all': [{'name': '--TPTREF', 'operator': 'empty'}, {'name': '--ELTM', 'operator': 'non_empty'}]}",
CDISC.SENDIG.280,280,CDISC,SENDIG,3.1,Draft,Record,Record Data,,"{'Classes': {'Include': ['FINDINGS']}, 'Domains': {'Include': ['LB', 'MI']}}","When --STAT is ""NOT DONE"", --REASND must be populated.",,"Trigger error when --STAT=""NOT DONE"" and --REASND is not populated","{'all': [{'name': '--STAT', 'operator': 'equal_to', 'value': 'NOT DONE'}, {'name': '--REASND', 'operator': 'empty'}]}",
CDISC.SENDIG.282,282,CDISC,SENDIG,3.1,Draft,Record,Record Data,,"{'Classes': {'Include': ['FINDINGS']}, 'Domains': {'Include': ['PP']}}",The multiple specimens are not correctly separated by a semicolon,,"If multiple specimen types are used for a calculation (e.g., serum and urine for creatinine clearance), then this field should be populated with values from the (SPEC) Controlled Terminology codelist delimited by a semicolon.","{'all': [{'name': 'PPSPEC', 'operator': 'not_matches_regex', 'value': '^[A-Za-z\\s,]+(;[A-Za-z\\s,]+)*$'}]}",
CDISC.SENDIG.289,289,CDISC,SENDIG,3.1,Draft,Record,Record Data,,"{'Classes': {'Include': ['FINDINGS']}, 'Domains': {'Include': ['BW', 'BG', 'CL', 'FW', 'LB', 'OM', 'PM', 'PC', 'VS', 'EG', 'CV', 'RE']}}",Neither --DTC nor --DY is populated,,"When a domain belongs to the Findings General Observation Class, and the domain is one in which data are usually collected at multiple study days, at least --DTC or --DY must be populated.","{'all': [{'name': '--DTC', 'operator': 'empty'}, {'name': '--DY', 'operator': 'empty'}]}",
CDISC.SENDIG.290,290,CDISC,SENDIG,3.1,Draft,Record,Record Data,,"{'Classes': {'Include': ['FINDINGS']}, 'Domains': {'Include': ['ALL']}}",The relationship between --TPT and --TPTNUM is not a one-to-one relationship,,There must be a one-to-one relationship between the values of --TPT and --TPTNUM,"{'all': [{'name': '--TPTNUM', 'operator': 'exists'}, {'name': '--TPT', 'operator': 'exists'}, {'name': '--TPTNUM', 'operator': 'non_empty'}, {'name': '--TPT', 'operator': 'non_empty'}, {'name': '--TPTNUM', 'operator': 'is_not_unique_relationship', 'value': '--TPT'}]}",
CDISC.SENDIG.291,291,CDISC,SENDIG,3.1,Draft,Record,Record Data,,"{'Classes': {'Include': ['INTERVENTIONS']}, 'Domains': {'Include': ['EX']}}",Neither --STDTC nor --STDY is populated,,Either --STDTC or --STDY must be populated.,"{'all': [{'name': '--STDTC', 'operator': 'empty'}, {'name': '--STDY', 'operator': 'empty'}]}",
CDISC.SENDIG.292,292,CDISC,SENDIG,3.1,Draft,Record,Record Data,,"{'Classes': {'Include': ['FINDINGS']}, 'Domains': {'Include': ['ALL']}}",The relationship between --TPT and --TPTNUM is not a one-to-one relationship,,There must be a one-to-one relationship between the values of --TPT and --TPTNUM,"{'all': [{'name': '--TPTNUM', 'operator': 'exists'}, {'name': '--TPT', 'operator': 'exists'}, {'name': '--TPTNUM', 'operator': 'non_empty'}, {'name': '--TPT', 'operator': 'non_empty'}, {'name': '--TPTNUM', 'operator': 'is_not_unique_relationship', 'value': '--TPT'}]}",
CDISC.SENDIG.293,293,CDISC,SENDIG,3.1,Draft,Record,Record Data,,"{'Classes': {'Include': ['FINDINGS']}, 'Domains': {'Include': ['ALL']}}",--TPT is populated but --TPTNUM is not populated,,Raise an error when --TPT is populated but --TPTNUM is not populated.,"{'all': [{'name': '--TPT', 'operator': 'non_empty'}, {'name': '--TPTNUM', 'operator': 'empty'}]}",
CDISC.SENDIG.294,294,CDISC,SENDIG,3.1,Draft,Record,Record Data,,"{'Classes': {'Include': ['FINDINGS']}, 'Domains': {'Include': ['ALL']}}",--STINT and --ENINT are populated but --TPTREF is not populated,,Raise an error when --STINT and -ENINT are populated but --TPTREF is not populated.,"{'all': [{'name': '--STINT', 'operator': 'non_empty'}, {'name': '--ENINT', 'operator': 'non_empty'}, {'name': '--TPTREF', 'operator': 'empty'}]}",
CDISC.SENDIG.295,295,CDISC,SENDIG,3.1,Draft,Record,Record Data,,"{'Classes': {'Include': ['FINDINGS']}, 'Domains': {'Include': ['ALL']}}",--STINT and --ENINT must both be populated or none of them must be populated,,WHEN --STINT ^= null OR --ENINT ^= null THEN --STINT ^= null  AND --ENINT ^= null,"{'any': [{'all': [{'name': '--STINT', 'operator': 'empty'}, {'name': '--ENINT', 'operator': 'non_empty'}]}, {'all': [{'name': '--ENINT', 'operator': 'empty'}, {'name': '--STINT', 'operator': 'non_empty'}]}]}",
CDISC.SENDIG.30,30,CDISC,SENDIG,3.1,Draft,Variable,Variable Metadata Check,,"{'Classes': {'Include': ['ALL']}, 'Domains': {'Include': ['ALL']}}",Variable name must be in uppercase,,Raise an error when variable name is not in uppercase,"{'all': [{'name': 'variable_name', 'operator': 'not_matches_regex', 'value': '^[A-Z]*$'}]}",
CDISC.SENDIG.303,303,CDISC,SENDIG,3.1,Draft,Record,Record Data,,"{'Classes': {'Include': ['FINDINGS', 'EVENTS', 'INTERVENTIONS']}, 'Domains': {'Include': ['ALL']}}",--USCHFL must be either Y or null,,--USCHFL must be either Y or null,"{'all': [{'name': '--USCHFL', 'operator': 'non_empty'}, {'name': '--USCHFL', 'operator': 'not_equal_to', 'value': 'Y'}]}",
CDISC.SENDIG.305,305,CDISC,SENDIG,3.1,Draft,Record,Record Data,,"{'Classes': {'Include': ['SPECIAL PURPOSE']}, 'Domains': {'Include': ['DM']}}",RFXSTDTC does not equal the earliest value of EX.EXSTDTC,"RFXSTDTC,$min_ex_exstdtc",Raise an error when EX records are present for subject but RFXSTDTC does not equal the earliest value of EX.EXSTDTC,"{'all': [{'name': 'USUBJID', 'operator': 'is_contained_by', 'value': '$ex_usubjid'}, {'name': 'RFXSTDTC', 'operator': 'not_equal_to', 'value': '$min_ex_exstdtc'}]}","{'operator': 'distinct', 'domain': 'EX', 'name': 'USUBJID', 'id': '$ex_usubjid'},{'operator': 'min_date', 'domain': 'EX', 'name': 'EXSTDTC', 'id': '$min_ex_exstdtc', 'group': ['USUBJID']}"
CDISC.SENDIG.309,309,CDISC,SENDIG,3.1,Draft,Record,Record Data,,"{'Classes': {'Include': ['SPECIAL PURPOSE']}, 'Domains': {'Include': ['DM']}}",The same SETCD is assigned to different SPECIES,"SPECIES,SETCD",DM records with different values for SPECIES may not have the same SETCD value.,"{'all': [{'name': 'SPECIES', 'operator': 'is_not_unique_set', 'value': ['DOMAIN', 'SETCD']}]}",
CDISC.SENDIG.311,311,CDISC,SENDIG,3.1,Draft,Record,Record Data,,"{'Classes': {'Include': ['SPECIAL PURPOSE']}, 'Domains': {'Include': ['CO']}}",The value of COSEQ is not unique within USUBJID,,Raise an error when COSEQ is not unique within USUBJID or within POOLID,"{'all': [{'name': 'USUBJID', 'operator': 'non_empty'}, {'name': 'COSEQ', 'operator': 'is_not_unique_set', 'value': 'USUBJID'}]}",
CDISC.SENDIG.314,314,CDISC,SENDIG,3.1,Draft,Record,Record Data,,"{'Classes': {'Include': ['INTERVENTIONS']}, 'Domains': {'Include': ['EX']}}",The value of COSEQ is not unique within POOLID,,Raise an error when EXDOSE is populated when EXDOSTXT is populated,"{'all': [{'name': 'EXDOSTXT', 'operator': 'non_empty'}, {'name': 'EXDOSE', 'operator': 'non_empty'}]}",
CDISC.SENDIG.317,317,CDISC,SENDIG,3.1,Draft,Record,Record Data,,"{'Classes': {'Include': ['EVENTS']}, 'Domains': {'Include': ['DS']}}",The value of DSSTDTC is not a valid ISO 8601 date/time,,Raise an error when the value of DSSTDTC is not a valid ISO 8601 date/time. This automatically excludes composite date/time-s,"{'all': [{'name': 'DSSTDTC', 'operator': 'non_empty'}, {'name': 'DSSTDTC', 'operator': 'contains', 'value': '/'}]}",
CDISC.SENDIG.319,319,CDISC,SENDIG,3.1,Draft,Record,Record Data,,"{'Classes': {'Include': ['FINDINGS']}, 'Domains': {'Include': ['LB', 'MI']}}","--DTC and --DY are not populated, so --NOMDY must be populated",,"If --DTC and --DY were not collected, --NOMDY must be populated.","{'all': [{'name': '--DTC', 'operator': 'empty'}, {'name': '--DY', 'operator': 'empty'}, {'name': '--NOMDY', 'operator': 'empty'}]}",
CDISC.SENDIG.33,33,CDISC,SENDIG,3.1,Draft,Record,Record Data,,"{'Classes': {'Include': ['ALL']}, 'Domains': {'Include': ['ALL']}}",DOMAIN value must be uppercase,DOMAIN,Raise an error when the value of DOMAIN contains non-uppercase characters,"{'all': [{'name': 'DOMAIN', 'operator': 'not_matches_regex', 'value': '^[A-Z0-9_]*$'}]}",
CDISC.SENDIG.336,336,CDISC,SENDIG,3.1,Draft,Record,Record Data,,"{'Classes': {'Include': ['FINDINGS']}, 'Domains': {'Include': ['CV']}}",The cardiovascular test is not unique for this subject and measurement datetime or evaluation interval.,"USUBJID,CVTESTCD,CVDTC",Raise an error when there is more than one record present for any particular cardiovascular test for a subject and measurement date/time or evaluation interval.,"{'all': [{'name': 'CVTESTCD', 'operator': 'is_not_unique_set', 'value': ['USUBJID', 'CVDTC']}, {'name': 'CVTESTCD', 'operator': 'is_not_unique_set', 'value': ['USUBJID', 'CVDTC', 'CVSTINT']}]}",
CDISC.SENDIG.338,338,CDISC,SENDIG,3.1,Draft,Record,Record Data,,"{'Classes': {'Include': ['FINDINGS']}, 'Domains': {'Include': ['RE']}}",The respiratory test is not unique for this subject and measurement datetime and/or evaluation interval.,"USUBJID,RETESTCD,REDTC,RESTINT",Raise an error when there is more than one record present for any particular respiratory test for a subject and measurement date/time or evaluation interval.,"{'all': [{'name': 'RETESTCD', 'operator': 'is_not_unique_set', 'value': ['USUBJID', 'REDTC']}, {'name': 'RETESTCD', 'operator': 'is_not_unique_set', 'value': ['USUBJID', 'REDTC', 'RESTINT']}]}",
CDISC.SENDIG.341,341,CDISC,SENDIG,3.1,Draft,Record,Record Data,,"{'Classes': {'Include': ['TRIAL DESIGN']}, 'Domains': {'Include': ['TS']}}",Only one record with TSPARMCD=SNDIGVER is allowed,,Raise an error when there is more than record with TSPARMCD=SNDIGVER,"{'all': [{'name': 'TSPARMCD', 'operator': 'equal_to', 'value': 'SNDIGVER'}, {'name': 'TSPARMCD', 'operator': 'is_not_unique_set', 'value': ['DOMAIN']}]}",
CDISC.SENDIG.342,342,CDISC,SENDIG,3.1,Draft,Record,Record Data,,"{'Classes': {'Include': ['TRIAL DESIGN']}, 'Domains': {'Include': ['TS']}}",Only one record with TSPARMCD=SDESIGN is allowed,,Raise an error when there is more than record with TSPARMCD=SDESIGN,"{'all': [{'name': 'TSPARMCD', 'operator': 'equal_to', 'value': 'SDESIGN'}, {'name': 'TSPARMCD', 'operator': 'is_not_unique_set', 'value': ['DOMAIN']}]}",
CDISC.SENDIG.343,343,CDISC,SENDIG,3.1,Draft,Record,Record Data,,"{'Classes': {'Include': ['TRIAL DESIGN']}, 'Domains': {'Include': ['TS']}}",Only one record with TSPARMCD=SNDCTVER is allowed,,Raise an error when there is more than record with TSPARMCD=SNDCTVER,"{'all': [{'name': 'TSPARMCD', 'operator': 'equal_to', 'value': 'SNDCTVER'}, {'name': 'TSPARMCD', 'operator': 'is_not_unique_set', 'value': ['DOMAIN']}]}",
CDISC.SENDIG.344,344,CDISC,SENDIG,3.1,Draft,Record,Record Data,,"{'Classes': {'Include': ['TRIAL DESIGN']}, 'Domains': {'Include': ['TS']}}",Only one record with TSPARMCD=STCAT is allowed,,Raise an error when there is more than record with TSPARMCD=STCAT,"{'all': [{'name': 'TSPARMCD', 'operator': 'equal_to', 'value': 'STCAT'}, {'name': 'TSPARMCD', 'operator': 'is_not_unique_set', 'value': ['DOMAIN']}]}",
CDISC.SENDIG.345,345,CDISC,SENDIG,3.1,Draft,Record,Record Data,,"{'Classes': {'Include': ['TRIAL DESIGN']}, 'Domains': {'Include': ['TS']}}",Only one record with TSPARMCD=SSTYP is allowed,,Raise an error when there is more than record with TSPARMCD=SSTYP,"{'all': [{'name': 'TSPARMCD', 'operator': 'equal_to', 'value': 'SSTYP'}, {'name': 'TSPARMCD', 'operator': 'is_not_unique_set', 'value': ['DOMAIN']}]}",
CDISC.SENDIG.36,36,CDISC,SENDIG,3.1,Draft,Record,Record Data,,"{'Classes': {'Include': ['INTERVENTIONS', 'FINDINGS', 'EVENTS']}, 'Domains': {'Include': ['ALL']}}",Both USUBJID and POOID are empty,"USUBJID,POOLID",Raise an error when both USUBJID and POOLID are empty,"{'all': [{'name': 'USUBJID', 'operator': 'empty'}, {'name': 'POOLID', 'operator': 'empty'}]}",
CDISC.SENDIG.43,43,CDISC,SENDIG,3.1,Draft,Record,Record Data,,"{'Classes': {'Include': ['ALL']}, 'Domains': {'Include': ['ALL']}}",--SCAT is equal to --CAT,"--CAT,--SCAT",Trigger error when --SCAT is not null and --SCAT is equal to --CAT,"{'all': [{'name': '--SCAT', 'operator': 'non_empty'}, {'name': '--SCAT', 'operator': 'equal_to', 'value': '--CAT'}]}",
CDISC.SENDIG.44,44,CDISC,SENDIG,3.1,Draft,Record,Record Data,,"{'Classes': {'Include': ['ALL']}, 'Domains': {'Include': ['ALL']}}",--SCAT is equal to DOMAIN,"--CAT,--SCAT,DOMAIN",Trigger error when --SCAT is not null and --SCAT is equal to DOMAIN,"{'all': [{'name': '--SCAT', 'operator': 'non_empty'}, {'name': '--SCAT', 'operator': 'equal_to', 'value': 'DOMAIN'}]}",
CDISC.SENDIG.45,45,CDISC,SENDIG,3.1,Draft,Record,Record Data,,"{'Classes': {'Include': ['ALL']}, 'Domains': {'Include': ['ALL']}}",--SCAT is equal to --DECOD,"--CAT,--SCAT,--DECOD,--BODSYS",Trigger error when --SCAT is not null and --SCAT is equal to --DECOD or --SCAT is equal to --BODSYS,"{'any': [{'name': '--SCAT', 'operator': 'non_empty'}, {'all': [{'name': '--DECOD', 'operator': 'non_empty'}, {'name': '--SCAT', 'operator': 'equal_to', 'value': '--DECOD'}]}, {'all': [{'name': '--BODSYS', 'operator': 'non_empty'}, {'name': '--SCAT', 'operator': 'equal_to', 'value': '--BODSYS'}]}]}",
CDISC.SENDIG.46,46,CDISC,SENDIG,3.1,Draft,Record,Record Data,,"{'Classes': {'Include': ['ALL']}, 'Domains': {'Include': ['ALL']}}",--CAT is equal to DOMAIN,"--CAT,DOMAIN",Trigger error when --CAT is not null and --CAT is equal to DOMAIN,"{'all': [{'name': '--CAT', 'operator': 'non_empty'}, {'name': '--CAT', 'operator': 'equal_to', 'value': 'DOMAIN'}]}",
CDISC.SENDIG.47,47,CDISC,SENDIG,3.1,Draft,Record,Record Data,,"{'Classes': {'Include': ['ALL']}, 'Domains': {'Include': ['ALL']}}",--CAT is equal to --DECOD,"--CAT,--DECOD,--BODSYS",Trigger error when --CAT is not null and --CAT is equal to --DECOD or --SCAT is equal to -BODSYS,"{'any': [{'name': '--CAT', 'operator': 'non_empty'}, {'all': [{'name': '--DECOD', 'operator': 'non_empty'}, {'name': '--CAT', 'operator': 'equal_to', 'value': '--DECOD'}]}, {'all': [{'name': '--BODSYS', 'operator': 'non_empty'}, {'name': '--CAT', 'operator': 'equal_to', 'value': '--BODSYS'}]}]}",
CDISC.SENDIG.58,58,CDISC,SENDIG,3.1,Draft,Record,Record Data,,"{'Classes': {'Include': ['ALL']}, 'Domains': {'Include': ['ALL']}}",--ENDTC must be greater than or equal to --DTC,"--ENDTC,--DTC",Raise and error when --ENDTC before --DTC,"{'all': [{'name': '--ENDTC', 'operator': 'non_empty'}, {'name': '--DTC', 'operator': 'non_empty'}, {'name': '--DTC', 'operator': 'date_greater_than', 'value': '--ENDTC'}]}",
CDISC.SENDIG.59,59,CDISC,SENDIG,3.1,Draft,Term,Record Data,,"{'Classes': {'Include': ['INTERVENTIONS', 'FINDINGS', 'EVENTS']}, 'Domains': {'Include': ['ALL']}}","--DUR, --EVLINT or --ELTM is not in ISO 8601 Duration format","USUBJID,--ELTM,--EVLINT,--DUR","--EVLINT, --ELTM, --DUR must be in ISO 8601 duration format, including the additional format that allows the representation of  ""negative"" intervals of time.","{'any': [{'all': [{'name': '--DUR', 'operator': 'non_empty'}, {'name': '--DUR', 'operator': 'not_matches_regex', 'value': '^-?P([0-9]+Y)?([0-9]+M)?([0-9]+D)?(T([0-9]+H)?([0-9]+M)?([0-9]+(\\.?[0-9]+)?S)?)?$'}, {'name': '--DUR', 'operator': 'not_matches_regex', 'value': '^-?P([0-9]+W)$'}]}, {'all': [{'name': '--EVLINT', 'operator': 'non_empty'}, {'name': '--EVLINT', 'operator': 'not_matches_regex', 'value': '^-?P([0-9]+Y)?([0-9]+M)?([0-9]+D)?(T([0-9]+H)?([0-9]+M)?([0-9]+(\\.?[0-9]+)?S)?)?$'}, {'name': '--EVLINT', 'operator': 'not_matches_regex', 'value': '^-?P([0-9]+W)$'}]}, {'all': [{'name': '--ELTM', 'operator': 'non_empty'}, {'name': '--ELTM', 'operator': 'not_matches_regex', 'value': '^-?P([0-9]+Y)?([0-9]+M)?([0-9]+D)?(T([0-9]+H)?([0-9]+M)?([0-9]+(\\.?[0-9]+)?S)?)?$'}, {'name': '--ELTM', 'operator': 'not_matches_regex', 'value': '^-?P([0-9]+W)$'}]}]}",
CDISC.SENDIG.63,63,CDISC,SENDIG,3.1,Draft,Record,Record Data,,"{'Classes': {'Include': ['ALL']}, 'Domains': {'Include': ['ALL']}}",--TPTREF must be populated when --RFTDTC is populated,"--RFTDTC,--TPTREF",Trigger error when --RFTDTC is populated and --TPTREF = null,"{'all': [{'name': '--RFTDTC', 'operator': 'exists'}, {'name': '--TPTREF', 'operator': 'exists'}, {'name': '--RFTDTC', 'operator': 'non_empty'}, {'name': '--TPTREF', 'operator': 'empty'}]}",
CDISC.SENDIG.64,64,CDISC,SENDIG,3.1,Draft,Record,Record Data,,"{'Classes': {'Include': ['FINDINGS']}, 'Domains': {'Include': ['ALL']}}",Value length of --TEST is greater than 40.,--TEST,Raise an error when length of --TEST is greater than 40.,"{'all': [{'name': '--TEST', 'operator': 'longer_than', 'value': 40}]}",
CDISC.SENDIG.66,66,CDISC,SENDIG,3.1,Draft,Record,Record Data,,"{'Classes': {'Include': ['ALL']}, 'Domains': {'Include': ['ALL']}}",Variable value is not in ISO 8601 date / datetime format,--DTC,Variables that include dates (--DTC) are required to be presented according to the international standard ISO 8601 date or date/time format,"{'all': [{'name': '--DTC', 'operator': 'invalid_date'}]}",
CDISC.SENDIG.67,67,CDISC,SENDIG,3.1,Draft,Record,Record Data,,"{'Classes': {'Include': ['ALL']}, 'Domains': {'Include': ['ALL']}}",Variable value is not in correct ISO 8601 date or datetime format,,"Values of variables RFSTDTC,  RFENDTC, BRTHDTC, --STDTC, --ENDTC, --DTC, --RFTDTC must be correct ISO-8601 dates / datetimes","{'any': [{'name': 'RFSTDTC', 'operator': 'invalid_date'}, {'name': 'RFENDTC', 'operator': 'invalid_date'}, {'name': 'BRTHDTC', 'operator': 'invalid_date'}, {'name': '--STDTC', 'operator': 'invalid_date'}, {'name': '--ENDTC', 'operator': 'invalid_date'}, {'name': '--DTC', 'operator': 'invalid_date'}, {'name': '--RFTDTC', 'operator': 'invalid_date'}]}",
CDISC.SENDIG.6A,6A,CDISC,SENDIG,3.1,Draft,Dataset,Variable Metadata Check,,"{'Classes': {'Include': ['FINDINGS']}, 'Domains': {'Include': ['VS']}}",The label of VSTESTCD is invalid,,Raise an error when the variable label of VSTESTCD is not 'Vital Signs Test Short Name',"{'all': [{'name': 'variable_name', 'operator': 'equal_to', 'value': 'VSTESTCD'}, {'name': 'variable_label', 'operator': 'not_equal_to', 'value': 'Vital Signs Test Short Name'}]}",
CDISC.SENDIG.71,71,CDISC,SENDIG,3.1,Draft,Record,Record Data,,"{'Classes': {'Include': ['ALL']}, 'Domains': {'Include': ['ALL']}}","One of --DY, --STDY or --ENDY must be populated","--DY,--STDY,--ENDY","One of --DY, --STDY or --ENDY must be populated","{'all': [{'name': '--DY', 'operator': 'empty'}, {'name': '--STDY', 'operator': 'empty'}, {'name': '--ENDY', 'operator': 'empty'}]}",
CDISC.SENDIG.72,72,CDISC,SENDIG,3.1,Draft,Record,Record Data,,"{'Classes': {'Include': ['ALL']}, 'Domains': {'Include': ['ALL']}}",--DY is not a non-zero integer,--DY,,"{'any': [{'name': '--DY', 'operator': 'equal_to', 'value': 0}, {'name': '--DY', 'operator': 'not_matches_regex', 'value': '^-?[0-9]'}]}",
CDISC.SENDIG.73,SENDIG73,CDISC,SENDIG,3.1,Draft,Record,Record Data,,"{'Classes': {'Include': ['ALL']}, 'Domains': {'Include': ['ALL']}}","--DY is not calculated correctly even though the date portion of --DTC is complete, the date portion of DM.RFSTDTC is a complete date, and --DY is not empty.","--DY,--DTC,RFSTDTC",Raise an error when --DY is not calculated as per the study day algorithm as a non-zero integer value when the date portion of --DTC is complete and the date portion of DM.RFSTDTC is a complete date AND --DY is not empty,"{'all': [{'name': '--DY', 'operator': 'non_empty'}, {'name': '--DTC', 'operator': 'is_complete_date'}, {'name': 'RFSTDTC', 'operator': 'is_complete_date'}, {'name': '--DY', 'operator': 'not_equal_to', 'value': '$val_dy'}]}","{'name': '--DTC', 'operator': 'dy', 'id': '$val_dy'}"
CDISC.SENDIG.74,74,CDISC,SENDIG,3.1,Draft,Record,Record Data,Fully Executable,"{'Classes': {'Include': ['ALL']}, 'Domains': {'Include': ['ALL']}}","--DY is not calculated correctly even though the date portion of --DTC is complete, the date portion of DM.RFSTDTC is a complete date, and --DY is not empty.","--DY,--DTC,RFSTDTC",Raise an error when --DY is not calculated as per the study day algorithm as a non-zero integer value when the date portion of --DTC is complete and the date portion of DM.RFSTDTC is a complete date AND --DY is not empty,"{'all': [{'name': '--DY', 'operator': 'non_empty'}, {'name': '--DTC', 'operator': 'is_complete_date'}, {'name': 'RFSTDTC', 'operator': 'is_complete_date'}, {'name': '--DY', 'operator': 'not_equal_to', 'value': '$val_dy'}]}","{'name': '--DTC', 'operator': 'dy', 'id': '$val_dy'}"
CDISC.SENDIG.85,85,CDISC,SENDIG,3.1,Draft,Record,Record Data,,"{'Classes': {'Include': ['FINDINGS']}, 'Domains': {'Include': ['ALL']}}",--ORRES must be populated as --STAT is not equal to 'NOT DONE',"--STAT,--ORRES","There should always be data presented in the --ORRES variable unless  --STAT = ""NOT DONE"".","{'all': [{'name': '--STAT', 'operator': 'not_equal_to', 'value': 'NOT DONE'}, {'name': '--ORRES', 'operator': 'empty'}]}",
CDISC.SENDIG.87,87,CDISC,SENDIG,3.1,Draft,Record,Record Data,,"{'Classes': {'Include': ['FINDINGS']}, 'Domains': {'Include': ['ALL']}}",--STRESC must be be populated as --ORRES is populated.,"--ORRES,--STRESC","When --ORRES is populated, --STRESC must also be populated.","{'all': [{'name': '--ORRES', 'operator': 'non_empty'}, {'name': '--STRESC', 'operator': 'empty'}]}",
CDISC.SENDIG.88,88,CDISC,SENDIG,3.1,Draft,Record,Record Data,Partially Executable,"{'Classes': {'Include': ['FINDINGS']}, 'Domains': {'Include': ['ALL']}}",--STRESC must be populated as --ORRES is populated,"--STRESC,--STRESN","When --STRESC represents numeric data, --STRESN must be populated.","{'all': [{'name': '--STRESC', 'operator': 'non_empty'}, {'name': '--STRESC', 'operator': 'matches_regex', 'value': '^-?(0|[1-9]\\d*)(\\.\\d+)?$'}, {'name': '--STRESN', 'operator': 'empty'}]}",
CDISC.SENDIG.91,91,CDISC,SENDIG,3.1,Draft,Record,Record Data,,"{'Classes': {'Include': ['FINDINGS']}, 'Domains': {'Include': ['ALL']}}",--STRESN may not be populated as --ORRES does not represent a pure numeric value,"--ORRES,--STRESN","When --ORRES is representing numeric data with special characters like '<' and '>', , --STRESN may not be populated.","{'all': [{'name': '--ORRES', 'operator': 'not_matches_regex', 'value': '^[+-]?([0-9]*[.])?[0-9]'}, {'name': '--STRESN', 'operator': 'non_empty'}]}",
CDISC.SENDIG.97,97,CDISC,"SENDIG-DART,SENDIG","1.1,3.1.1,3.1,3.0",Draft,Record,Record Data,Fully Executable,"{'Classes': {'Include': ['SPECIAL PURPOSE']}, 'Domains': {'Include': ['DM']}}",USUBJID is not unique within DM,USUBJID,DM - One record per subject,"{'all': [{'name': 'USUBJID', 'operator': 'is_not_unique_set', 'value': 'DOMAIN'}]}",
CDISC.SENDIG.SEND1,1,CDISC,SENDIG,3.1,Draft,Dataset,Dataset Metadata Check,,"{'Classes': {'Include': ['ALL']}, 'Domains': {'Include': ['ALL']}}",The filename is not equal to the 2-character domain code.,DOMAIN,Raise an error when the filename is not equal to the value of DOMAIN.,"{'all': [{'name': 'dataset_name', 'operator': 'equal_to_case_insensitive', 'value': 'DOMAIN'}]}",
CDISC.SENDIG.SEND142,142,CDISC,"SENDIG,SENDIG-DART,SENDID-GENETOX","3.0,3.1,v1.1,v1.2,v1.0",Draft,Domain,Record Data,,"{'Classes': {'Include': ['FINDINGS']}, 'Domains': {'Include': ['BW']}}",The Body Weight test is not unique for this subject and date/time.,"USUBJID,BWTESTCD,BWDTC","Raise an error when there is more than one record present for any particular Body Weight test, in the BW Domain, for a subject on a particular date.","{'all': [{'name': 'BWDTC', 'operator': 'non_empty'}, {'name': 'BWTESTCD', 'operator': 'is_not_unique_set', 'value': ['USUBJID', 'BWDTC']}]}",
CDISC.SENDIG.SEND157,157,CDISC,"SENDIG,SENDIG-DART,SENDID-GENETOX","3.0,3.1,v1.1,v1.2,v1.0",Draft,Variable,Record Data,,"{'Classes': {'Include': ['FINDINGS']}, 'Domains': {'Include': ['CL', 'PM', 'MA', 'MI', 'TF']}}",The mass identification is not unique within the subject regardless of the mass location.,"--SPID,USUBJID","Raise an error when the mass identification is not unique within the subject, regardless of the mass location.","{'any': [{'name': '--SPID', 'operator': 'is_not_unique_set', 'value': '-""USUBJID""'}]}",
CORE-000001,CG0176,CDISC,SDTMIG,"3.4,3.2,3.3",Published,Record,Record Data,Fully Executable,"{'Classes': {'Include': ['FINDINGS']}, 'Domains': {'Include': ['IE']}}","IECAT equals ""INCLUSION"" and IEORRES is not equal to ""N"".",,"Raise an error when IECAT=""INCLUSION"" and IEORRES^=""N"".","{'all': [{'name': 'IECAT', 'operator': 'equal_to', 'value': 'INCLUSION'}, {'name': 'IEORRES', 'operator': 'not_equal_to', 'value': 'N'}]}",
CORE-000002,CG0208,CDISC,SDTMIG,"3.4,3.2,3.3",Published,Record,Record Data,Fully Executable,"{'Classes': {'Include': ['SPECIAL PURPOSE']}, 'Domains': {'Include': ['SE']}}",SESTDTC is required.,,Raise an error when SESTDTC is null.,"{'all': [{'name': 'SESTDTC', 'operator': 'empty'}]}",
CORE-000003,CG0299,CDISC,SDTMIG,"3.4,3.2,3.3",Published,Dataset,Record Data,Fully Executable,"{'Classes': {'Include': ['FINDINGS']}, 'Domains': {'Include': ['TR']}}",TRLOC is present when TRLOC is not included in the TR domain.,,Raise an error when TRLOC is present.,"{'all': [{'name': 'TRLOC', 'operator': 'exists'}]}",
CORE-000004,CG0101,CDISC,SDTMIG,"3.4,3.2,3.3",Published,Record,Record Data,Fully Executable,"{'Classes': {'Include': ['INTERVENTIONS']}, 'Domains': {'Include': ['EC']}}","ECOCCUR indicates dose was not given, but ECDOSE is not blank or has a value less than or equal to 0","ECDOSE,ECOCCUR","When ECOCCUR indicates no dose, then ECDOSE needs to be null or > 0; it cannot be used to indicate a dose wasn't taken.","{'all': [{'name': 'ECOCCUR', 'operator': 'equal_to', 'value': 'N'}, {'name': 'ECDOSE', 'operator': 'less_than_or_equal_to', 'value': 0}]}",
CORE-000005,CG0102,CDISC,SDTMIG,"3.4,3.2,3.3",Published,Record,Record Data,Fully Executable,"{'Classes': {'Include': ['INTERVENTIONS']}, 'Domains': {'Include': ['EX']}}","EXTRT is PLACEBO, but EXDOSE is not equal to 0.","EXTRT,EXDOSE","When EXTRT is PLACEBO, EXDOSE must equal 0","{'all': [{'name': 'EXTRT', 'operator': 'equal_to', 'value': 'PLACEBO'}, {'name': 'EXDOSE', 'operator': 'not_equal_to', 'value': 0}]}",
CORE-000006,CG0131,CDISC,SDTMIG,"3.4,3.2,3.3",Published,Record,Record Data,Fully Executable,"{'Classes': {'Include': ['SPECIAL PURPOSE']}, 'Domains': {'Include': ['DM']}}","DTHFL is not ""Y"" or null",DTHFL,"Raise an error when DTHFL ^= ""Y"" and not null","{'all': [{'name': 'DTHFL', 'operator': 'not_equal_to', 'value': 'Y'}, {'name': 'DTHFL', 'operator': 'non_empty'}]}",
CORE-000007,CG0435,CDISC,SDTMIG,"3.4,3.2,3.3",Published,Record,Record Data,Fully Executable,"{'Classes': {'Include': ['SPECIAL PURPOSE']}, 'Domains': {'Include': ['DM']}}","DTHFL is not ""Y"", when DTHDTC is populated","DTHDTC,DTHFL","Raise an error when DTHDTC is not empty and DTHFL not equal to ""Y""","{'all': [{'name': 'DTHDTC', 'operator': 'non_empty'}, {'name': 'DTHFL', 'operator': 'not_equal_to', 'value': 'Y'}]}",
CORE-000008,CG0132,CDISC,SDTMIG,"3.4,3.2,3.3",Published,Record,Record Data,Fully Executable,"{'Classes': {'Include': ['FINDINGS']}, 'Domains': {'Include': ['SS']}}","DTHFL is not ""Y"", when SS.SSSTRESC equals ""DEAD""","DTHFL,SSSTRESC","Raise an error when DTHFL not equal to ""Y"" and SS.SSSTRESC = ""DEAD"".","{'all': [{'name': 'SSSTRESC', 'operator': 'equal_to', 'value': 'DEAD'}, {'name': 'DTHFL', 'operator': 'not_equal_to', 'value': 'Y'}]}",
CORE-000009,CG0152,CDISC,SDTMIG,"3.4,3.2,3.3",Published,Record,Record Data,Fully Executable,"{'Classes': {'Include': ['SPECIAL PURPOSE']}, 'Domains': {'Include': ['SE']}}",ELEMENT variable has a non-null value when ETCD has a value of 'UNPLAN',"ETCD,ELEMENT",Verify that ELEMENT value is blank when ETCD is equal to UNPLAN,"{'all': [{'name': 'ETCD', 'operator': 'equal_to', 'value': 'UNPLAN'}, {'name': 'ELEMENT', 'operator': 'non_empty'}]}",
CORE-000010,CG0153,CDISC,SDTMIG,"3.4,3.2,3.3",Published,Record,Record Data,Fully Executable,"{'Classes': {'Include': ['SPECIAL PURPOSE', 'TRIAL DESIGN']}, 'Domains': {'Include': ['DM', 'TA']}}",ARMCD value length is greater than 20,ARMCD,Verify ARMCD value length is <= 20,"{'all': [{'name': 'ARMCD', 'operator': 'matches_regex', 'value': '^(.){21,}$'}]}",
CORE-000011,CG0175,CDISC,SDTMIG,"3.4,3.2,3.3",Published,Record,Record Data,Fully Executable,"{'Classes': {'Include': ['FINDINGS']}, 'Domains': {'Include': ['IE']}}",IEORRES = N for an exclusion criteria. Only exclusion criteria not met should be included in IE domain.,"IECAT,IEORRES",Verify the value for IEORRES is Y,"{'all': [{'name': 'IECAT', 'operator': 'equal_to', 'value': 'EXCLUSION'}, {'name': 'IEORRES', 'operator': 'equal_to', 'value': 'N'}]}",
CORE-000012,CG0040,CDISC,SDTMIG,"3.4,3.3,3.2",Published,Dataset,Record Data,Fully Executable,"{'Classes': {'Include': ['EVENTS']}, 'Domains': {'Include': ['AE']}}",AEOCCUR is present in AE dataset.,AEOCCUR,Raise an error when AEOCCUR exists in AE dataset.,"{'all': [{'name': 'AEOCCUR', 'operator': 'exists'}]}",
CORE-000013,CG0044,CDISC,SDTMIG,"3.4,3.3,3.2",Published,Dataset,Record Data,Fully Executable,"{'Classes': {'Include': ['EVENTS']}, 'Domains': {'Include': ['AE']}}",AESTAT variable is present in AE dataset.,AESTAT,Raise an error when AESTAT is present in AE dataset.,"{'all': [{'name': 'AESTAT', 'operator': 'exists'}]}",
CORE-000014,CG0087,CDISC,SDTMIG,"3.4,3.2,3.3",Published,Record,Record Data,Fully Executable,"{'Classes': {'Include': ['EVENTS', 'INTERVENTIONS']}, 'Domains': {'Exclude': ['AE', 'DS', 'DV', 'EX']}}","--OCCUR should only be provided when --PRESP is equal to ""Y"".","--PRESP,--OCCUR,--STAT","Raise an error when --PRESP is not equals to ""Y"" and --OCCUR is present in dataset or --STAT is equal to ""NOT DONE"" and --OCCUR is not blank","{'all': [{'any': [{'all': [{'name': '--PRESP', 'operator': 'not_equal_to', 'value': 'Y'}, {'name': '--OCCUR', 'operator': 'exists'}, {'name': '--OCCUR', 'operator': 'non_empty'}]}, {'all': [{'name': '--STAT', 'operator': 'equal_to', 'value': 'NOT DONE'}]}]}, {'all': [{'name': '--OCCUR', 'operator': 'non_empty'}]}]}",
CORE-000015,CG0088,CDISC,SDTMIG,"3.4,3.2,3.3",Published,Dataset,Record Data,Fully Executable,"{'Classes': {'Include': ['EVENTS', 'INTERVENTIONS']}, 'Domains': {'Exclude': ['AE', 'DS', 'DV', 'EX']}}",--PRESP is missing in dataset when --OCCUR is present.,"--PRESP,--OCCUR",Raise an error when --PRESP does not exists in a dataset and --OCCUR exist.,"{'all': [{'name': '--PRESP', 'operator': 'not_exists'}, {'name': '--OCCUR', 'operator': 'exists'}]}",
CORE-000016,CG0089,CDISC,SDTMIG,"3.4,3.2,3.3",Published,Dataset,Record Data,Fully Executable,"{'Classes': {'Include': ['EVENTS', 'INTERVENTIONS']}, 'Domains': {'Exclude': ['AE', 'DS', 'DV', 'EX']}}","--PRESP should be populated as ""Y"" when --OCCUR is provided.","--PRESP,--OCCUR","Raise an error when --OCCUR is not empty and --PRESP is not equal to ""Y"".","{'all': [{'name': '--OCCUR', 'operator': 'non_empty'}, {'name': '--PRESP', 'operator': 'not_equal_to', 'value': 'Y'}]}",
CORE-000017,CG0166,CDISC,SDTMIG,"3.4,3.2,3.3",Published,Record,Record Data,Fully Executable,"{'Classes': {'Include': ['SPECIAL PURPOSE']}, 'Domains': {'Include': ['CO']}}",RDOMAIN has a missing value when IDVARVAL has a non-missing value,"RDOMAIN,IDVARVAL",Verify RDOMAIN is not null when IDVARVAL is not null,"{'all': [{'name': 'IDVARVAL', 'operator': 'non_empty'}, {'name': 'RDOMAIN', 'operator': 'empty'}]}",
CORE-000018,CG0086,CDISC,SDTMIG,"3.4,3.2,3.3",Published,Record,Record Data,Fully Executable,"{'Classes': {'Include': ['EVENTS', 'INTERVENTIONS']}, 'Domains': {'Exclude': ['AE', 'DS', 'DV', 'EX']}}","--OCCUR is blank when --PRESP is equal to ""Y"" and --STAT is not provided.","--PRESP,--OCCUR,--STAT","Raise an error when --PRESP is equal to ""Y"", --STAT is blank, --OCCUR is present in dataset and --OCCUR is blank","{'all': [{'name': '--PRESP', 'operator': 'equal_to', 'value': 'Y'}, {'name': '--STAT', 'operator': 'empty'}, {'name': '--OCCUR', 'operator': 'exists'}, {'name': '--OCCUR', 'operator': 'empty'}]}",
CORE-000019,CG0311,CDISC,SDTMIG,"3.4,3.2,3.3",Published,Dataset,Variable Metadata Check,Fully Executable,"{'Classes': {'Include': ['ALL']}, 'Domains': {'Include': ['ALL']}}",Variable label length should be less than or equal to 40 characters,,Raise and error if Variable label length > 40 characters,"{'all': [{'name': 'variable_label', 'operator': 'longer_than', 'value': 40}]}",
CORE-000020,CG0206,CDISC,SDTMIG,"3.4,3.2,3.3",Published,Record,Record Data,Fully Executable,"{'Classes': {'Include': ['SPECIAL PURPOSE']}, 'Domains': {'Include': ['SE']}}",TAETORD should be null when ETCD = 'UNPLAN'.,"ETCD,TAETORD","Raise an error when ETCD=""UNPLAN"" and TAETORD is not null.","{'all': [{'name': 'ETCD', 'operator': 'equal_to', 'value': 'UNPLAN'}, {'name': 'TAETORD', 'operator': 'non_empty'}]}",
CORE-000021,CG0397,CDISC,SDTMIG,"3.4,3.2,3.3",Published,Record,Record Data,Fully Executable,"{'Classes': {'Include': ['FINDINGS']}, 'Domains': {'Include': ['ALL']}}",--STRESC should not be blank when either --ORRES is provided or --DRVFL = 'Y' .,"--ORRES,--DRVFL,--STRESC",Raise an error when the value for --STRESC is null.,"{'all': [{'any': [{'name': '--ORRES', 'operator': 'non_empty'}, {'name': '--DRVFL', 'operator': 'equal_to', 'value': 'Y'}]}, {'all': [{'name': '--STRESC', 'operator': 'empty'}]}]}",
CORE-000022,CG0041,CDISC,SDTMIG,"3.4,3.3,3.2",Published,Record,Record Data,Fully Executable,"{'Classes': {'Include': ['EVENTS']}, 'Domains': {'Include': ['AE']}}","At least one of the Seriousness criteria (AESCAN, AESCONG, AESDISAB, AESDTH, AESHOSP, AESLIFE, AESOD or AESMIE)  = 'Y', but AESER = 'N' or empty.","AETERM,AESTDTC,AESER,AESCAN,AESCONG,AESDISAB,AESDTH,AESHOSP,AESLIFE,AESOD,AESMIE","Raise an error when AESCAN, AESCONG, AESDISAB, AESDTH, AESHOSP, AESLIFE, AESOD or AESMIE = 'Y' and AESER = 'N' or is empty.","{'all': [{'any': [{'name': 'AESCAN', 'operator': 'equal_to', 'value': 'Y'}, {'name': 'AESCONG', 'operator': 'equal_to', 'value': 'Y'}, {'name': 'AESDISAB', 'operator': 'equal_to', 'value': 'Y'}, {'name': 'AESDTH', 'operator': 'equal_to', 'value': 'Y'}, {'name': 'AESHOSP', 'operator': 'equal_to', 'value': 'Y'}, {'name': 'AESLIFE', 'operator': 'equal_to', 'value': 'Y'}, {'name': 'AESOD', 'operator': 'equal_to', 'value': 'Y'}, {'name': 'AESMIE', 'operator': 'equal_to', 'value': 'Y'}]}, {'name': 'AESER', 'operator': 'not_equal_to', 'value': 'Y'}]}",
CORE-000023,CG0084,CDISC,SDTMIG,"3.4,3.3,3.2",Published,Dataset,Record Data,Fully Executable,"{'Classes': {'Include': ['EVENTS', 'FINDINGS']}, 'Domains': {'Include': ['ALL']}}",--TOX present in dataset even though --TOXGR is not,,"Raise an error when --TOXGR is not present in dataset, but --TOX is present","{'all': [{'name': '--TOXGR', 'operator': 'not_exists'}, {'name': '--TOX', 'operator': 'exists'}]}",
CORE-000024,CG0082,CDISC,SDTMIG,"3.4,3.3,3.2",Published,Record,Record Data,Fully Executable,"{'Classes': {'Include': ['EVENTS']}, 'Domains': {'Include': ['ALL']}}",--BODSYS is not empty and --BDSYCD is empty,,"Raise an error if --BODSYS is not empty, --BDSYCD is empty","{'all': [{'name': '--BODSYS', 'operator': 'non_empty'}, {'name': '--BDSYCD', 'operator': 'empty'}]}",
CORE-000025,CG0177,CDISC,SDTMIG,"3.4,3.2,3.3",Published,Record,Record Data,Fully Executable,"{'Classes': {'Include': ['FINDINGS']}, 'Domains': {'Include': ['IE']}}",IESTRESC is not equal to IEORRES,"IEORRES,IESTRESC",IESTRESC is not equal to IEORRES,"{'all': [{'name': 'IESTRESC', 'operator': 'not_equal_to', 'value': 'IEORRES'}]}",
CORE-000026,CG0468,CDISC,SDTMIG,"3.4,3.2,3.3",Published,Dataset,Record Data,Fully Executable,"{'Classes': {'Include': ['ALL']}, 'Domains': {'Include': ['ALL']}}",The --TPTNUM variable does not exist when --TPT does exist.,,"When --TPT is present in a dataset, --TPTNUM must also be present.","{'all': [{'name': '--TPT', 'operator': 'exists'}, {'name': '--TPTNUM', 'operator': 'not_exists'}]}",
CORE-000027,CG0328,CDISC,SDTMIG,"3.4,3.2,3.3",Published,Record,Record Data,Fully Executable,"{'Classes': {'Include': ['TRIAL DESIGN']}, 'Domains': {'Include': ['TE']}}",At least one of TEENRL and TEDUR must be populated.,"ETCD,TEDUR,TEENRL",Either TEENRL or TEDUR must be present for each Element.,"{'all': [{'any': [{'name': 'TEDUR', 'operator': 'empty'}, {'name': 'TEDUR', 'operator': 'not_exists'}]}, {'any': [{'name': 'TEENRL', 'operator': 'empty'}, {'name': 'TEENRL', 'operator': 'not_exists'}]}]}",
CORE-000028,CG0008,CDISC,SDTMIG,"3.4,3.3,3.2",Published,Record,Record Data,Fully Executable,"{'Classes': {'Include': ['ALL']}, 'Domains': {'Include': ['ALL']}}",--TPTREF is empty and --ELTM is not empty,"--TPTREF,--ELTM","Raise an error when --TPTREF is empty, but --ELTM is not empty","{'all': [{'name': '--TPTREF', 'operator': 'empty'}, {'name': '--ELTM', 'operator': 'non_empty'}]}",
CORE-000029,CG0661,CDISC,SDTMIG,3.4,Published,Dataset,Record Data,Fully Executable,"{'Classes': {'Include': ['ALL']}, 'Domains': {'Include': ['ALL']}}","--TPTNUM exists in a dataset, but --TPT does not exist. When time points are represented in SDTMIG domains, both --TPT and --TPTNUM must be used.",,Raise an error when --TPTNUM exists in a dataset and --TPT does not exist.,"{'all': [{'name': '--TPTNUM', 'operator': 'exists'}, {'name': '--TPT', 'operator': 'not_exists'}]}",
CORE-000030,CG0053,CDISC,SDTMIG,"3.4,3.3,3.2",Published,Dataset,Record Data,Fully Executable,"{'Classes': {'Include': ['EVENTS', 'INTERVENTIONS']}, 'Domains': {'Exclude': ['DS', 'DV', 'EX']}}",--REASND should not be present in dataset when --PRESP is not present in dataset,,Raise and error when --REASND is present in dataset and --PRESP is not present in dataset,"{'all': [{'name': '--PRESP', 'operator': 'not_exists'}, {'name': '--REASND', 'operator': 'exists'}]}",
CORE-000031,CG0659,CDISC,SDTMIG,3.4,Published,Dataset,Record Data,Fully Executable,"{'Classes': {'Include': ['FINDINGS']}, 'Domains': {'Include': ['QS', 'FT', 'RS']}}",--EVAL is present.  --EVAL must not be used to model QRS data.,,--EVAL must not be used to model QRS data.   This includes the 'QS' and 'FT' domains as well as the 'RS' domain when the record pertains to a Clinical Classification Use Case). This rule has been fully executed for the QS and FT domains only.,"{'any': [{'name': 'QSEVAL', 'operator': 'exists'}, {'name': 'FTEVAL', 'operator': 'exists'}]}",
CORE-000032,CG0660,CDISC,SDTMIG,3.4,Published,Dataset,Record Data,Fully Executable,"{'Classes': {'Include': ['FINDINGS']}, 'Domains': {'Include': ['QS', 'FT', 'RS']}}",--EVALID is present.  --EVALID must not be used to model QRS data.,,--EVALID must not be used to model QRS data.   This includes the 'QS' and 'FT' domains as well as the 'RS' domain when the record pertains to a Clinical Classification Use Case). This rule has been fully executed for the QS and FT domains only.,"{'any': [{'name': 'QSEVALID', 'operator': 'exists'}, {'name': 'FTEVALID', 'operator': 'exists'}]}",
CORE-000033,CG0065,CDISC,SDTMIG,"3.4,3.3,3.2",Published,Record,Record Data,Fully Executable,"{'Classes': {'Include': ['EVENTS']}, 'Domains': {'Include': ['DS']}}","DSDECOD is not equal to ""COMPLETED"" when DSTERM equals ""COMPLETED"".","DSTERM,DSDECOD","Raise an error when DSTERM = ""COMPLETED"" and DSDECOD not equal to ""COMPLETED"".","{'all': [{'name': 'DSTERM', 'operator': 'equal_to', 'value': 'COMPLETED'}, {'name': 'DSDECOD', 'operator': 'not_equal_to', 'value': 'COMPLETED'}]}",
CORE-000034,CG0069,CDISC,SDTMIG,"3.4,3.3,3.2",Published,Record,Record Data,Fully Executable,"{'Classes': {'Include': ['EVENTS']}, 'Domains': {'Include': ['DS']}}","DSSTDTC does not equal DM.DTHDTC, when DSDECOD equals ""DEATH"".","DSDECOD,DSSTDTC,DTHDTC","Raise an error when DSSTDTC is not equal to DM.DTHDTC and DSDECOD is equal to ""DEATH""","{'all': [{'name': 'DSDECOD', 'operator': 'equal_to', 'value': 'DEATH'}, {'name': 'DSSTDTC', 'operator': 'not_equal_to', 'value': 'DTHDTC'}]}",
CORE-000035,CG0658,CDISC,SDTMIG,3.4,Published,Record,Record Data,Fully Executable,"{'Classes': {'Include': ['SPECIAL PURPOSE']}, 'Domains': {'Include': ['SV']}}",VISITDY is populated when SVPRESP is null.  VISITDY is the Planned Study Day of a visit. It should not be populated for unplanned visits.,,Raise an error when SVPRESP is null and VISITDY is not null.,"{'all': [{'name': 'SVPRESP', 'operator': 'empty'}, {'name': 'VISITDY', 'operator': 'non_empty'}]}",
CORE-000036,CG0657,CDISC,SDTMIG,3.4,Published,Record,Record Data,Fully Executable,"{'Classes': {'Include': ['SPECIAL PURPOSE']}, 'Domains': {'Include': ['SV']}}",Planned visit is not found in TV.,,"Raise an error when SVPRESP is ""Y"" and VISIT is not present in TV.VISIT.","{'all': [{'name': 'SVPRESP', 'operator': 'equal_to', 'value': 'Y'}, {'name': 'VISIT', 'operator': 'is_not_contained_by', 'value': '$tv_visit'}]}","{'domain': 'TV', 'id': '$tv_visit', 'name': 'VISIT', 'operator': 'distinct'}"
CORE-000037,CG0653,CDISC,SDTMIG,3.4,Published,Record,Record Data,Fully Executable,"{'Classes': {'Include': ['SPECIAL PURPOSE']}, 'Domains': {'Include': ['SV']}}","SVPRESP is not null and not equal to ""Y"". Values should be ""Y"" or null.",,"Raise an error when SVPRESP not ""Y"" or null.","{'all': [{'name': 'SVPRESP', 'operator': 'not_equal_to', 'value': 'Y'}, {'name': 'SVPRESP', 'operator': 'non_empty'}]}",
CORE-000038,CG0654,CDISC,SDTMIG,3.4,Published,Record,Record Data,Fully Executable,"{'Classes': {'Include': ['SPECIAL PURPOSE']}, 'Domains': {'Include': ['SV']}}","SVPRESP is not ""Y"" when SVOCCUR is populated.",,"Raise an error when SVOCCUR is not null and SVPRESP is not ""Y"".","{'all': [{'name': 'SVOCCUR', 'operator': 'non_empty'}, {'name': 'SVPRESP', 'operator': 'not_equal_to', 'value': 'Y'}]}",
CORE-000039,CG0655,CDISC,SDTMIG,3.4,Published,Record,Record Data,Fully Executable,"{'Classes': {'Include': ['SPECIAL PURPOSE']}, 'Domains': {'Include': ['SV']}}",VISITNUM for planned visit is not in TV.,,"Raise an error when SVPRESP=""Y"" and VISITNUM is not in TV.VISITNUM","{'all': [{'name': 'SVPRESP', 'operator': 'equal_to', 'value': 'Y'}, {'name': 'VISITNUM', 'operator': 'is_not_contained_by', 'value': '$tv_visitnum'}]}","{'domain': 'TV', 'id': '$tv_visitnum', 'name': 'VISITNUM', 'operator': 'distinct'}"
CORE-000040,CG0656,CDISC,SDTMIG,3.4,Published,Record,Record Data,Fully Executable,"{'Classes': {'Include': ['SPECIAL PURPOSE']}, 'Domains': {'Include': ['SV']}}",VISITNUM for unplanned visit is present in TV.,,Raise an error when SVPRESP is null and VISITNUM is present in TV.VISITNUM,"{'all': [{'name': 'SVPRESP', 'operator': 'empty'}, {'name': 'VISITNUM', 'operator': 'is_contained_by', 'value': '$tv_visitnum'}]}","{'domain': 'TV', 'id': '$tv_visitnum', 'name': 'VISITNUM', 'operator': 'distinct'}"
CORE-000041,CG0649,CDISC,SDTMIG,3.4,Published,Record,Record Data,Fully Executable,"{'Classes': {'Include': ['TRIAL DESIGN']}, 'Domains': {'Include': ['TS']}}",TSVALNF is populated when TSVAL is populated with a value that is not in the ISO 21090 null flavor codelist.,,"When TSVAL is not populated with values or synonyms of values in the ISO 21090 null flavor codelist (or other terms that can be represented as null flavors), unless the term is included in published terminology, TSVALNF should be null.","{'all': [{'name': 'TSVAL', 'operator': 'non_empty'}, {'name': 'TSVAL', 'operator': 'is_not_contained_by_case_insensitive', 'value': ['NI', 'INV', 'DER', 'OTH', 'NINF', 'PINF', 'UNC', 'MSK', 'NA', 'UNK', 'ASKU', 'NAV', 'NASK', 'NAVU', 'NAV', 'QS', 'TRC', 'NP']}, {'name': 'TSVALNF', 'operator': 'non_empty'}]}",
CORE-000042,CG0647,CDISC,SDTMIG,3.4,Published,Study,Domain Presence Check,Fully Executable,"{'Classes': {'Include': ['ALL']}, 'Domains': {'Include': ['TT']}}",TT dataset is present.,,Raise an error when TT dataset is present.,"{'any': [{'name': 'TT', 'operator': 'exists'}]}",
CORE-000043,CG0648,CDISC,SDTMIG,3.4,Published,Study,Domain Presence Check,Fully Executable,"{'Classes': {'Include': ['ALL']}, 'Domains': {'Include': ['TP']}}",TP dataset is present.,,Raise an error when TP dataset is present.,"{'all': [{'name': 'TP', 'operator': 'exists'}]}",
CORE-000044,CG0646,CDISC,SDTMIG,3.4,Published,Study,Domain Presence Check,Fully Executable,"{'Classes': {'Include': ['ALL']}, 'Domains': {'Include': ['SJ']}}",SJ dataset is present.,,Raise an error when SJ dataset is present.,"{'any': [{'name': 'SJ', 'operator': 'exists'}]}",
CORE-000045,CG0517,CDISC,SDTMIG,"3.4,3.3",Published,Record,Record Data,Fully Executable,"{'Classes': {'Include': ['SPECIAL PURPOSE']}, 'Domains': {'Include': ['DM']}}",ARMNRS value is missing when ARMCD value is missing,"ARMCD,ARMNRS",Verify ARMNRS is not null when ARMCD is null,"{'all': [{'name': 'ARMCD', 'operator': 'empty'}, {'name': 'ARMNRS', 'operator': 'empty'}]}",
CORE-000046,CG0519,CDISC,SDTMIG,"3.4,3.3",Published,Record,Record Data,Fully Executable,"{'Classes': {'Include': ['SPECIAL PURPOSE']}, 'Domains': {'Include': ['DM']}}",ARMNRS is missing when ARM value is missing,"ARM,ARMNRS",Verify ARMNRS is not null when ARM is null,"{'all': [{'name': 'ARM', 'operator': 'empty'}, {'name': 'ARMNRS', 'operator': 'empty'}]}",
CORE-000047,CG0518,CDISC,SDTMIG,"3.4,3.3",Published,Record,Record Data,Fully Executable,"{'Classes': {'Include': ['SPECIAL PURPOSE']}, 'Domains': {'Include': ['DM']}}",ARM value in DM dataset is not among the values of ARM variable in TA dataset. This is allowed only in a multistage study with incomplete ARM assignment. Please confirm if your study is a multistage assignment study,ARM,"When study does not use multi-stage arm assignments and ARM is populated, ARM must be present in TA.ARM. This rule has been executed to identify all cases when ARM is not present in TA.ARM and therefore acknowledges that false positives may be recorded when multi-stage arm assignments are in use.","{'all': [{'name': 'ACTARM', 'operator': 'non_empty'}, {'name': 'ARM', 'operator': 'non_empty'}, {'name': 'ARM', 'operator': 'is_not_contained_by', 'value': '$ta_arm'}]}","{'operator': 'distinct', 'domain': 'TA', 'name': 'ARM', 'id': '$ta_arm'}"
CORE-000048,CG0621,CDISC,SDTMIG,3.4,Published,Dataset,Record Data,Fully Executable,"{'Classes': {'Include': ['INTERVENTIONS']}, 'Domains': {'Include': ['ALL']}}",--METHOD is present in an interventions domain.,,Raise an error when --METHOD is present in an Interventions dataset.,"{'all': [{'name': '--METHOD', 'operator': 'exists'}]}",
CORE-000049,"CG0507,CG0622",CDISC,SDTMIG,"3.4,3.3",Published,Dataset,Record Data,Fully Executable,"{'Classes': {'Include': ['ALL']}, 'Domains': {'Include': ['ALL']}}",--USCHFL is present.,,Raise an error when --USCHFL is present.,"{'all': [{'name': '--USCHFL', 'operator': 'exists'}]}",
CORE-000050,CG0623,CDISC,SDTMIG,3.4,Published,Dataset,Record Data,Fully Executable,"{'Classes': {'Include': ['INTERVENTIONS', 'FINDINGS']}, 'Domains': {'Include': ['ALL']}}",--RSTIND is present.,,Raise an error when --RSTIND is present.,"{'all': [{'name': '--RSTIND', 'operator': 'exists'}]}",
